acc_x,acc_y,acc_z,gyrx,gyry,gyrz
-0.00784345150088775,-0.009015117637254298,-0.03172141843140125,0.0029232429806143045,-0.01526089757680893,-0.002399065298959613
0.0015831821047933771,-0.009380553416162729,-0.035005846929550166,0.007034509442746639,-0.021007519215345383,-0.0010753683745861053
0.00892447792844614,-0.006565788256376982,-0.042024201259016986,0.009073158726096153,-0.02557484060525894,0.00023517291992902756
0.005013557270629098,-0.00663753831833601,-0.0411176078081131,0.0064102644100785255,-0.020834947004914284,-0.0015317774377763271
-0.005786750724876765,-0.00119510980239138,-0.02883446481823921,0.00459984689950943,-0.01274825818836689,-0.0011964854784309864
-0.020703934296057557,-0.015894922012556344,-0.009531213933229445,-0.006917258724570274,0.02329150214791298,0.0005617588758468628
-0.032685769951529796,-0.025858079355955122,0.03444645948112011,-0.0079484349116683,0.024508299306035042,0.003745567984879017
0.000811750207724981,-0.00275618510665372,-0.04531447497606277,0.00014064554125070572,-0.00219759251922369,-0.0005692718550562859
0.010547584476607152,0.008297525686118752,-0.08600947345793247,0.004157224670052528,-0.004839448258280754,-0.0014340002089738846
-0.004689822333643678,-0.006210398947447538,-0.02181435692310333,0.00027551944367587566,0.004122696816921234,-0.00012936117127537727
-0.012694469445344293,0.0008442505381070077,-0.007900397861003876,-0.0028526296373456717,0.0040105776861310005,-0.0003935466520488262
0.004610038520634407,-0.006469908400159329,-0.04022913453578949,-0.0010840201284736395,-0.00449930876493454,0.0009402399882674217
0.0036099991991941347,-0.0066013892927207045,-0.041270168021321295,0.004705958534032106,-0.01232820376753807,-0.003446785034611821
0.006001899304409744,-0.0007122399225831032,-0.05068798470795154,0.004983240272849798,-0.025753138586878777,-0.0021427804604172707
0.005211220425821375,-0.004012194783426821,-0.058005029723048204,0.011425427161157131,-0.03894989937543869,-0.0023992431815713644
0.009698231930052861,-0.002861526910960674,-0.059034957292675966,0.005990021396428347,-0.018506033346056938,-1.788279041647911e-05
-0.03161250099709723,-0.010326985687110572,0.03328618353009224,-0.008375069126486778,0.027898218482732773,0.0010314024984836578
-0.028845611833338624,-0.009899243528023361,0.03641805181503296,-0.00255794869735837,0.005970653612166643,0.00016135862097144127
0.006783728156262077,0.0014884849920868872,-0.0814940418601036,0.0038741177413612604,-0.015575917437672615,-0.0010791420936584473
0.007078916277131066,0.0030603922176174816,-0.07280453944802284,0.004183861427009106,-0.009534621611237526,0.0016104024834930897
-0.014130506155919282,-0.013485961174685507,-0.014589666366577148,0.005430220626294613,-0.017786160111427307,-0.0019398578442633152
0.0029013725808705202,-0.0023411380323581396,-0.0483849684625864,0.02274993434548378,-0.05409160628914833,-0.0018444480374455452
0.019875529781053773,0.010623630546126514,-0.10670973165929316,0.021756310015916824,-0.06879092752933502,-0.00041433097794651985
-0.007984034723578951,-0.011487462567538022,-0.036356092494726176,0.015658652409911156,-0.045210979878902435,0.001128103118389845
-0.018903871737304144,-0.021491609508451075,0.012146364867687224,0.025173861533403397,-0.07364422082901001,-0.002120687160640955
0.029316170220845376,0.004139894550014287,-0.10978314775526522,0.04154028370976448,-0.14150328934192657,-0.005181991960853338
0.058052942251693454,0.016724522970803082,-0.1572153455376625,0.04994761571288109,-0.1737980991601944,-0.006230478640645742
0.03080400219238363,0.003533380024228245,-0.06686871965825557,0.05248870700597763,-0.1956913024187088,-0.00452410290017724
0.027176715073315424,-0.003192220170050859,-0.07578852369487285,0.07130074501037598,-0.26490288972854614,0.01618330553174019
-0.035521924959216265,-0.07366451727822422,-0.19076339487433433,0.08950836211442947,-0.32986581325531006,0.05899108573794365
-0.021536106237303464,-0.07645948175899683,-0.13123510110676287,0.08455780893564224,-0.308948814868927,0.05862462893128395
0.03872095846254378,0.030549908700305967,0.054425417670607566,0.055442508310079575,-0.2028675377368927,0.02744678221642971
0.05299889199882746,0.07273867113757879,0.19578619147241114,0.02146722935140133,-0.06623192876577377,-0.0015505128540098667
-0.02213434612508863,0.026848971823137252,0.1869219170153141,-0.0040000323206186295,0.008039845153689384,0.0012241536751389503
-0.06007878552349284,-0.03526157525628805,0.06514554912745953,-0.0050778137519955635,0.020633399486541748,0.00029657455161213875
-0.007804992928821593,-0.0029207645512185987,-0.0442108976483345,-0.0012515150010585785,0.008396430872380733,0.0013019931502640247
0.008399415158014744,-0.003207216809783131,-0.05601999338567257,-0.00320174777880311,0.006590541452169418,0.0006151641719043255
-0.01034925231784582,-0.01196372004346922,-0.02816518725454807,-0.008474287576973438,0.01902783289551735,-0.00037411926314234734
-0.01525580212511122,-0.021685524645354597,-0.004932780227065086,-0.010127311572432518,0.03083042800426483,-0.00047611817717552185
-0.008909611436165869,-0.00948304567625746,-0.024193945536017416,-0.012572359293699265,0.03138330206274986,0.0014892946928739548
-0.007384886086918413,-0.01133683858308941,-0.02713876681625843,-0.009358990006148815,0.035177506506443024,0.0001486591063439846
-0.013517799351364374,-0.012184979845024644,-0.03247603619098663,-0.009658572264015675,0.036614444106817245,0.002841601148247719
-0.011251407055649906,-0.01119290006775409,-0.011616203513741492,-0.015292756259441376,0.05263415724039078,0.0020876601338386536
-0.016904482647590337,-0.014135785119235515,-0.0007628010660409927,-0.017522228881716728,0.06139332801103592,0.001938563771545887
-0.028057470830064265,-0.0049585722554475065,-0.023124854999780654,-0.014382893219590187,0.06116562336683273,0.0015745097771286964
-0.013347392954211681,-0.006969418887514621,-0.02873334253132343,-0.015136202797293663,0.06119588389992714,0.002323058433830738
-0.017083145416434853,-0.008691055048350244,-0.03225800952613354,-0.015763908624649048,0.055877815932035446,0.0028285272419452667
-0.012236837896425276,-0.008850666056852786,-0.03638882572054863,-0.015385438688099384,0.05690215900540352,0.0003881468437612057
-0.013292301766108721,-0.011043481659702956,-0.03168926972746849,-0.018426503986120224,0.07088295370340347,0.002193770371377468
-0.028434679245157166,-0.011353406125400214,-0.004378068953752518,-0.02444528043270111,0.08739791810512543,0.004088202491402626
-0.023672442412562666,-0.007990925688669085,-0.002806289592385292,-0.018806038424372673,0.0786702111363411,0.0027670077979564667
-0.008135951049393042,0.0020003069717437027,-0.0599134936928749,-0.012391923926770687,0.052264317870140076,0.00259446632117033
0.0044188028229400515,-0.0062844140317291014,-0.08143617419302462,-0.0037877834402024746,0.015247710049152374,-0.001432233490049839
0.015817363264318554,-0.004261548168305308,-0.09744798231720923,0.004805597942322493,-0.01550738513469696,-0.0015363357961177826
0.019120715658646075,0.005092208572477102,-0.08519523446559905,0.008539082482457161,-0.029788585379719734,0.001612053718417883
0.01329095005923882,-0.010240640844218432,-0.0460147321999073,0.0038315251003950834,-0.026673927903175354,0.00024757254868745804
-0.0070486398698762056,-0.007591313645523041,-0.009810615396499633,-0.002363253850489855,0.004620878491550684,-0.0023548686876893044
-0.02339674901003018,-0.019477767201699317,0.0213321263641119,-0.009429310448467731,0.038961924612522125,0.0022920514456927776
-0.03774855150012299,-0.01661974742207676,0.0330482831209898,-0.013209134340286255,0.057081542909145355,0.0016845841892063618
-0.0312934205439873,-0.01049101714240387,-0.006707973206043243,-0.01651117578148842,0.06976478546857834,0.004870976787060499
-0.02381566854184493,-0.015905279009789226,-0.010551789152622223,-0.021259058266878128,0.07072138786315918,0.0030957129783928394
-0.00375899634049274,-0.005801452820375561,-0.03026888153553009,-0.01250273734331131,0.05662217736244202,0.00305055920034647
0.00415075387074612,-0.0019150946400128305,-0.0706447310656309,-0.010045705363154411,0.0360412672162056,0.004159498959779739
0.007686554180923849,-0.0040343335499987,-0.06584229921996593,-0.004349203780293465,0.02205408178269863,-0.0006166137754917145
0.0052562948266975575,-0.0017436287969350814,-0.04757774373292923,-0.005678387358784676,0.014754891395568848,0.0005336054600775242
-0.00021163345668464897,-0.006121935212705284,-0.048175125104188914,0.00023492611944675446,0.004694115836173296,-0.0013026534579694271
-0.009112833257531747,-0.012813359142746776,-0.04009527902305126,-0.002554202452301979,0.0076257227919995785,-0.0006408579647541046
-0.007319565765745937,-0.016758224311005324,-0.02034428437054157,-0.0023143826983869076,-0.0007970673032104969,0.0008617728017270565
0.005005872862739488,-0.007020436688698828,-0.06254676480591297,0.005468972027301788,-0.017676182091236115,-0.0005683447234332561
0.005437615343509242,-0.008108743382059037,-0.055817748811841005,0.0026372421998530626,-0.00866062380373478,3.542797639966011e-05
-0.0022296861476730555,-0.012900562502164393,-0.0009065934509038925,0.001979175256565213,-0.0026956754736602306,-0.0005821590311825275
-0.0021402086327783764,-0.01352088635759428,-0.020509119543433187,-0.002091742353513837,0.004753759130835533,-0.001140125561505556
-0.0065433480957057324,-0.011890088551677763,-0.02813596116006374,-0.004802041687071323,0.01535873394459486,0.0006615030579268932
-0.0005131006212905049,-0.0012805778624489902,-0.025138532909750936,-0.002792008686810732,0.005867175757884979,0.001339120790362358
0.006828740908345207,-0.006410542895738035,-0.048931496429443354,0.0030831911135464907,-0.012644456699490547,-0.001597813330590725
0.0048479332215152675,-0.00250538868336007,-0.07168927168250083,0.008457567542791367,-0.02710295096039772,-0.002583975438028574
-0.0022604831447359175,-0.015000621787644922,-0.044164135897159576,0.0019309581257402897,-0.009815309196710587,-0.0010340157896280289
-0.015536792757268995,-0.013656404104456305,0.017485972329974172,-0.002539821434766054,0.005338067654520273,0.0005109589546918869
-0.007986413910333067,-0.0036785971811972556,-0.015736498314142228,9.48440283536911e-05,-0.01117992214858532,0.0005373242311179638
0.013393661515042185,0.0017405783233232796,-0.05794833109974861,0.005588286090642214,-0.01896250993013382,-0.0008289176039397717
0.005373071340471506,-0.00356068815626204,-0.048077509948611256,-0.0026105213910341263,-0.006135127507150173,-0.0007034828886389732
-0.02322984061106108,-0.010682174066640435,-0.0006441431224346161,-0.002981116296723485,0.005276856943964958,-0.0030521186999976635
-0.0026317093436140564,-0.013083389989472925,-0.020846388673782346,0.0033337711356580257,-0.00846079271286726,-0.0005950862541794777
0.010963393027661368,0.0002288951187394559,-0.06080605861842632,0.0068298387341201305,-0.018789341673254967,-0.0021204696968197823
0.0021162249689921737,0.001588255572132766,-0.047042906203866,0.006729703862220049,-0.017170405015349388,-0.001612071879208088
-0.004784859656356275,-0.008335062951222062,-0.01682078641951084,0.0005332143045961857,-0.006315453909337521,-0.0019637318328022957
-0.0037709607729222625,-0.014871698178350925,-0.018769582399725912,0.0011707751546055079,-0.002863731235265732,-0.00042602233588695526
-0.0038871710311155763,-0.01313108332240954,-0.023709376889467237,0.001985112903639674,-0.004199558403342962,0.00039706379175186157
-0.00837903909026645,-0.0038075573231093583,-0.029696050083637234,0.002587253460660577,-0.005272279493510723,0.0007222360000014305
-0.006640415262011811,-0.004940981799829751,-0.04121814557313919,0.0036299284547567368,0.0012591490522027016,0.0007204338908195496
-0.011433997080940752,-0.003362443904113024,-0.01262976447045803,9.884312748908997e-05,0.007170568220317364,6.529642269015312e-05
-0.003285104351583868,-0.01503962035747245,-0.029235446834564208,0.00013772537931799889,-0.0017174659296870232,0.00021949317306280136
0.001694391960883513,-0.00884041865747422,-0.04974222829043865,0.005347400903701782,-0.018957704305648804,-0.004172858316451311
0.007034784874459728,0.004558540087193251,-0.0488555085837841,0.007620661519467831,-0.02473377250134945,-0.002310351934283972
-0.002735946036223322,0.004335289257951081,-0.042730303701758385,0.006586023606359959,-0.01582523249089718,0.0017760028131306171
-0.0173499522596132,-0.009313424730394036,-0.013104396244883536,0.002592453034594655,-0.011576282791793346,0.002359106671065092
-0.011920958613976835,-0.01546580988029018,-0.023136545437574384,0.005858819931745529,-0.013332637026906013,0.0012845215387642384
0.014654201236460357,-0.0007092077152803539,-0.04800736732184887,0.0093813706189394,-0.03508180379867554,-0.0011662277393043041
0.015132404074305668,-0.0003587137771770358,-0.04743628943562507,0.010004466399550438,-0.04041370749473572,-0.00017929403111338615
0.011587114416575058,-0.008046473534498362,-0.02951367925405502,0.012249772436916828,-0.04881143197417259,-0.0006733257323503494
0.0027190314340405164,-0.017009769652970134,-0.017426351097226143,0.01099409256130457,-0.05355026200413704,0.0009394846856594086
0.008173798841750249,0.008960738835204393,-0.046207039901614184,0.01048006396740675,-0.04308570176362991,-0.0006556296721100807
0.002652341139689088,-0.009232504981290548,-0.041917818275094026,0.002568078925833106,-0.006307982839643955,0.0031886431388556957
-0.024949093018565325,-0.02030274678375572,0.011629647517204285,-0.0004052012227475643,0.0009957016445696354,0.006037776358425617
-0.03329802009835839,-0.049289461287949234,-0.051720250365138054,0.0377456471323967,-0.13993345201015472,0.09790164977312088
-0.1896342264476232,-0.2909139506811276,-0.3574059094488621,0.09511934965848923,-0.34270912408828735,0.16921211779117584
0.03662599547728896,-0.05734123205207288,-0.3803875565856695,0.10522951185703278,-0.38124293088912964,0.1333467960357666
0.16446533493222668,0.08493360612103715,-0.011081365984678267,0.07067540287971497,-0.2633056640625,0.08073733747005463
0.018874303149525075,-0.17013072201646864,0.2325572945088148,0.04381183162331581,-0.1533850133419037,0.07393935322761536
-0.049449254959542305,-0.34042817890197036,0.12136135734617709,0.03915796056389809,-0.13882312178611755,0.09062299132347107
-0.03699236283795908,-0.5383061915544792,-0.064680269703269,0.039079662412405014,-0.14680248498916626,0.11397518217563629
0.0339846506556496,-0.658167117742449,-0.0702700525343418,0.034164149314165115,-0.12843072414398193,0.14425480365753174
0.030995442244410514,-0.6513977697379887,0.004421323573589325,0.017082899808883667,-0.07263484597206116,0.1630290150642395
0.021484978838264942,-0.4626601085375994,0.0622317075073719,-0.015188658609986305,0.019174883142113686,0.16593697667121887
-0.5465179569195956,-0.9418239003695547,0.10279869569540023,0.028211811557412148,-0.13700565695762634,0.10833065956830978
-0.9624227440230548,-1.3749839928522705,-0.41031215472817417,0.07221455127000809,-0.2619131803512573,0.00584013108164072
-0.511682132794708,-0.584224368044734,-0.2038788970351219,0.06369935721158981,-0.2310548722743988,-0.04082111641764641
-0.32667806863207366,-0.0875556799866259,0.11013269184529781,0.01729043759405613,-0.07609722018241882,-0.038718778640031815
-0.1760280729593709,0.17845486171487718,0.300480491656065,-0.02410760149359703,0.07982660084962845,-0.058510325849056244
-0.10714680790230631,-0.014038215629430487,0.2308487370252609,-0.03787623345851898,0.1411624401807785,-0.09288162738084793
0.044641617215797305,-0.04457040600995533,-0.01881283701956272,-0.008202491328120232,0.06336111575365067,-0.12221155315637589
0.23300847234241662,-0.0604585786213167,-0.2728209158360958,0.008954741060733795,-0.08442489802837372,-0.16279692947864532
0.3628541283847764,-0.06820286347200162,-0.2561836692899465,0.03312505781650543,-0.14689812064170837,-0.14734819531440735
0.7418136614613234,0.12127914068913087,-0.1721247453778982,0.027593322098255157,-0.1149124801158905,-0.10521765053272247
0.8480342944294214,0.18012126055713742,0.013409516671299934,0.013090280815958977,-0.06068333238363266,-0.037001851946115494
0.7023091148730367,0.1843352797892876,0.0739653999209404,0.014937670901417732,-0.05275142937898636,0.03285615146160126
0.2593044316589832,-0.05982621726822108,-0.0366688117057085,0.02370825968682766,-0.05917204171419144,0.0717441588640213
-0.05602737297452986,-0.2288666598299518,-0.07445990543961524,0.025111738592386246,-0.07206515967845917,0.060913581401109695
-0.22414562265742569,-0.16199839682942255,-0.0634387452095747,0.026802046224474907,-0.11544671654701233,-0.0007202215492725372
-0.28559092902746047,-0.1737334957487881,-0.08518120594024657,0.03236791491508484,-0.12878964841365814,-0.08408831059932709
-0.15536007305979727,-0.2042599505082704,-0.06474632067680358,0.028310321271419525,-0.1164214015007019,-0.12497928738594055
-0.0053693084808066486,-0.027503508475422857,-0.013158172258734703,0.014046581462025642,-0.052968233823776245,-0.11650148779153824
0.17739877679068594,0.13968964398549868,0.10793021336495875,-0.01875530742108822,-0.0011540353298187256,-0.14993375539779663
0.12063757311627268,-0.18503763763867317,0.16091770718693732,-0.025825204327702522,0.06947887688875198,-0.16164249181747437
0.07180467822309583,-0.29338631387772035,-0.03710194242596626,-0.011408980935811996,0.05188789963722229,-0.11758795380592346
-0.05446246174536645,-0.4393512022078037,-0.07311024439632892,-0.019636381417512894,0.12342927604913712,-0.07922250032424927
-0.1382711372233927,-0.5501312885785475,0.09095160603523254,-0.05910069867968559,0.196128249168396,-0.09861377626657486
-0.11919183128736913,-0.31969259365890174,0.1406844819754362,-0.07737303525209427,0.23341460525989532,-0.13427701592445374
-0.17873773377686739,-0.28887300117174164,0.06761515411138534,-0.07373915612697601,0.24846386909484863,-0.123417429625988
-0.2968054198725149,-0.2097223258337006,-0.09291443054080009,-0.06491047888994217,0.2235429435968399,-0.10215093195438385
-0.35553240719456225,-0.241279183086846,-0.021723171508312225,-0.08075442910194397,0.27334457635879517,-0.11113163828849792
-0.3714910603594035,-0.3271541982438415,0.06716039608120918,-0.09580881893634796,0.35976794362068176,-0.12548954784870148
-0.20448141123922542,-0.10462260492062196,0.09105039023458956,-0.10312079638242722,0.33210089802742004,-0.14927344024181366
-0.0847803335217759,0.06286947568794712,-0.1012006128489971,-0.09196142107248306,0.2912394404411316,-0.17431508004665375
-0.0526002480700612,-0.08994884046716616,-0.09908172099888324,-0.07271475344896317,0.2498350292444229,-0.16501879692077637
0.0970349262706004,-0.009495832092594355,-0.11116437298059463,-0.06062019243836403,0.20631176233291626,-0.14159242808818817
0.18863997297957538,0.11223750037113205,-0.1695680466324091,-0.07586836814880371,0.23321066796779633,-0.08725108951330185
0.1973375673665665,0.08726579366195947,0.011703297275304794,-0.09410542994737625,0.3026275336742401,-0.06392499804496765
0.047474155494291334,-0.1515098456387408,0.11366788023412228,-0.1080673411488533,0.37128400802612305,-0.05022260546684265
-0.14703670054636894,-0.18627673271326348,0.03752688983976841,-0.09808608144521713,0.3547327220439911,-0.0696016252040863
-0.34205632809307424,-0.2690712079137563,0.07783493483066559,-0.06704635918140411,0.22889812290668488,-0.10294662415981293
-0.43611185496039684,-0.2651355124326423,-0.18455460336208343,-0.06754783540964127,0.15109094977378845,-0.14919641613960266
-0.27761582196243106,-0.08321240835161879,-0.20515783092975615,-0.06134214997291565,0.16199958324432373,-0.1998043805360794
-0.19497947819940745,-0.10150123976338654,-0.11671908449828625,-0.00045509880874305964,0.025295263156294823,-0.23708385229110718
-0.16602403561631215,-0.013492354382853955,-0.008664367970824241,-0.012495934963226318,0.03670194372534752,-0.2215910404920578
-0.1295961017280817,0.04070151955420151,-0.3366483681023121,-0.010028516873717308,0.03353491425514221,-0.19281744956970215
-0.03269802664490416,-0.08391641016881912,-0.037252164551615716,0.013535295613110065,-0.0018048379570245743,-0.16457979381084442
-0.1343135952366516,0.0025295002113096413,-0.012243395501375197,0.0006932655815035105,-0.008832387626171112,-0.16743150353431702
-0.24630839115940034,-0.2311164663170464,0.03279869227409363,-0.005561330355703831,-0.004563469439744949,-0.17451034486293793
-0.33658476481419053,-0.20545222903275862,-0.07524842546880245,-0.007358964532613754,0.043602727353572845,-0.1849086582660675
-0.09760952042131685,0.20910567350639028,-0.07958733145594596,0.025496579706668854,-0.0068945009261369705,-0.1705014705657959
-0.02170059435032308,0.3498525714598596,-0.004905307698249817,-0.010302430018782616,0.008639451116323471,-0.1194734275341034
0.15766371035967022,0.5019062233854085,-0.022122399958968163,-0.018604913726449013,0.0013474756851792336,-0.0736251175403595
0.2526665828133933,0.5757344798579812,0.010021043276786804,0.007195789832621813,-0.00842126552015543,-0.035933930426836014
0.18798571032192557,0.4256938482552767,0.0024029694885015487,0.006730497814714909,-0.01099264994263649,-0.027362151071429253
0.18821425838079303,0.11673484832299873,-0.056411623051762574,0.004533124156296253,-0.013741564936935902,-0.01519523374736309
0.07243164644844365,-0.1188021378500387,-0.0228963069409132,-0.0016168045112863183,0.008946557529270649,0.018039386719465256
-0.028171096405526622,-0.19101957985879853,-0.06761632315516472,-0.010811368003487587,-1.018540933728218e-05,0.041268546134233475
-0.20667135903155429,-0.3498540327645838,-0.04549041606485844,-0.00312934466637671,-0.013896451331675053,0.04526788741350174
-0.47150326714143154,-0.5541018361773341,-0.04161445141434669,-0.0017980304546654224,0.009001140482723713,0.022340202704072
-0.6088026732558384,-0.5858377945907414,-0.025291677644848822,-0.008134730160236359,0.0073197572492063046,-0.027260268107056618
-0.6033125514069572,-0.39303354153856634,-0.09682722007036208,0.0003303936682641506,-0.016294758766889572,-0.08853134512901306
-0.4270242931414395,-0.0760646554888226,0.0025385785669088364,-0.004154229536652565,0.01655317097902298,-0.10518040508031845
-0.20166839964510871,0.05652028932431712,-0.04221767800450325,-0.0027520752046257257,0.0029193847440183163,-0.09667853266000748
-0.0482109544693958,0.11255617439886555,-0.020831191104650496,-0.0077307699248194695,0.012638578191399574,-0.06627815216779709
0.01430448589978041,0.07732344164457172,0.010890227326750756,0.006162142381072044,-0.010759156197309494,-0.03709736466407776
-0.0028566794891958123,-0.11661303030792623,-0.048669630622863766,0.012185707688331604,-0.011693550273776054,-0.022028405219316483
-0.1411883946432732,-0.2472997768169269,-0.08981237287223338,-0.014772405847907066,0.010246103629469872,-0.014949191361665726
-0.37804822691790757,-0.3473859621506184,-0.02708908245563507,0.005505714565515518,0.028925715014338493,-0.050116315484046936
-0.42850167221762236,-0.39800175840519364,0.0010065466940402984,-0.008591994643211365,0.0002578534185886383,-0.0883590430021286
-0.5281267063129693,-0.47212055878955866,-0.030555881783366202,-0.010160347446799278,0.010759316384792328,-0.12666308879852295
-0.5263245522618294,-0.4632485759500414,-0.10270984836816788,-0.002980998484417796,-0.005389027297496796,-0.17469185590744019
-0.5096428089868277,-0.3082942706795409,-0.021132219877839087,-0.01185501180589199,0.012996990233659744,-0.22095130383968353
-0.44300179713722315,-0.3091041622903198,0.01849310354590416,0.0071370555087924,0.007389172911643982,-0.22701957821846008
-0.2172119144041091,-0.027797230724990366,-0.08503799807727336,0.013373631983995438,0.014202665537595749,-0.20456744730472565
0.13388878482016733,0.19635270278137176,-0.05362170007228851,-0.0016356781125068665,0.0009465147741138935,-0.1588476300239563
0.41215500611588357,0.2991731536508538,0.0828489636003971,0.000627078814432025,0.010203653015196323,-0.10673828423023224
0.5532348440844566,0.5359323020299896,-0.08758768256008624,0.007402160204946995,0.015250076539814472,-0.056640759110450745
0.46040356178246433,0.23583812454408035,-0.025140870997309682,0.0032582555431872606,-0.03630140423774719,-0.057448867708444595
0.07109191771070472,-0.22618670003097502,-0.03292261091470718,-0.010418673977255821,0.018031343817710876,-0.08927710354328156
-0.3932500703660771,-0.6674865886211395,0.02676934898197651,-0.0013974910834804177,0.01587928831577301,-0.15254665911197662
-0.6778520614214241,-0.5601660681197419,-0.0990963340461254,0.011377159506082535,-0.005896315444260836,-0.19753916561603546
-0.7036072649247944,-0.10764827288473024,-0.10505144305825233,0.02253899537026882,-0.24958324432373047,0.8073040843009949
-0.359663807910867,0.3691035807009786,0.19780922173261642,0.04695006459951401,-0.15488684177398682,0.6691664457321167
5.3934512806773185,10.56868884949684,-0.21731588623523712,0.036146316677331924,-0.28404685854911804,0.5507083535194397
1.3438967806711792,-0.8415947629012167,-0.3164426154196262,0.04233497008681297,-0.09774701297283173,0.5948259830474854
0.14678581279153002,0.2623589603913948,0.07579203082621097,-0.008952997624874115,0.01267462782561779,0.6332430243492126
-0.05831868508236948,-1.512929989774525,0.11977554945945738,-0.05568666011095047,0.0893394947052002,0.6606498956680298
-0.149719701685803,-0.8556234343841671,-0.003732756787538528,-0.012134658172726631,0.10924422740936279,0.5756258368492126
-0.3889151464343071,-0.5237631042759865,-0.08951718931794166,-0.011658417992293835,0.03734137862920761,0.4347631633281708
-0.4314236240789294,-0.09142309600450098,-0.01158931550681591,-0.009664243087172508,-0.005332846660166979,0.2845965623855591
-0.44330618691127743,0.09624045142466202,-0.1524134982138872,-0.0008673467673361301,0.003504173830151558,0.19322948157787323
-0.6006766134127974,0.06902043606573716,-0.043346974295377726,0.010909684002399445,-0.004341765306890011,0.08588625490665436
-0.662203972043097,0.3769308037279174,-0.013093290328979492,0.00038775685243308544,0.011207315139472485,-0.014047708362340927
-0.6723756758369505,0.5281613757675513,0.039565702190995214,-0.011356783099472523,0.06223108246922493,-0.08661165833473206
-0.5825042662538588,0.5501061176046729,0.09461129758656024,0.0020999666303396225,-0.0014126342721283436,-0.15585200488567352
-0.7029257124014199,0.2824439179723151,-0.16739537876844404,-0.004027700517326593,0.01673281379044056,-0.1976628303527832
-0.8508972826451062,-0.02109740429278463,-0.004142506632208824,-2.5015324354171753e-06,-0.023832302540540695,-0.23281875252723694
-0.4097716181106865,0.4239977118618786,0.12111878076195716,0.04901111498475075,-0.05690157040953636,0.2625638246536255
2.4616502255290746,2.6159403312698006,-0.24898820482790468,0.03516054153442383,-0.15678155422210693,0.23775899410247803
0.4023133745266124,-0.3099297994595021,-0.028331191471219062,0.04102029651403427,-0.08927546441555023,0.5531677603721619
1.6476998408786951,0.7077222259629518,0.09110884242355823,0.0036002276465296745,0.0001331954263150692,0.611781895160675
0.25492804320566353,-0.10723737226258963,0.14285714983940123,-0.02691294066607952,0.08120008558034897,0.5885034799575806
-0.17742363723730667,0.2200733499835245,0.025792612904310223,-0.017037808895111084,0.07569188624620438,0.5658130049705505
-0.00294608679296507,-0.022911285314336418,0.010778583645820617,-0.03711804375052452,0.05344223231077194,0.4994584619998932
0.00691073665721633,0.013154482464306056,-0.09787292973101139,0.008594589307904243,-0.03899344429373741,0.44276338815689087
0.26939424758935343,-0.11513758746050297,-0.1463350550830364,0.00628349743783474,-0.037692222744226456,0.4063878059387207
0.12230959798172115,-0.1928495717649348,-0.041863457739353176,0.01788540557026863,-0.08021721243858337,0.40823668241500854
-0.03985988109828904,-0.3186956185108051,-0.09958499434590339,0.020816747099161148,-0.06827560067176819,0.42641544342041016
-0.20104118939116597,-0.4481867620270699,-0.010980828219652175,0.0016632720362395048,-0.016193648800253868,0.46224188804626465
-0.442076389387995,-0.4185046674035489,-0.010986088916659354,0.0018582153134047985,-0.010325905866920948,0.4945864975452423
-0.5026700838973746,-0.17314822494043036,-0.029827567508816717,0.01894797757267952,-0.06102978438138962,0.5287730097770691
-0.4934621471017599,0.12240810818644239,-0.09803191968500613,0.03238522633910179,-0.08573725819587708,0.5700961947441101
-0.7971915575511753,0.4561905471973121,-0.1006780502796173,0.0555274598300457,-0.18972773849964142,0.4474494159221649
-2.277238683899492,0.8653458600405604,-0.14836509960591793,0.07275597751140594,-0.23868995904922485,0.31428655982017517
-2.501761286643147,0.784408867541328,-0.012645546561479568,0.06148918718099594,-0.19223818182945251,0.2391367256641388
-2.053651462309807,0.48395833263210947,0.13488017961084842,0.01359197311103344,-0.04702454432845116,0.15232832729816437
-1.4889344894200562,0.26725327177159486,0.3012807021230459,-0.03672589361667633,0.11650962382555008,0.13381144404411316
-0.38911461452916263,-0.03960524875009432,0.24010230306088923,-0.04040371999144554,0.1530255675315857,0.1464681178331375
0.1404231641581282,-0.20814968795580788,-0.08131400911808014,-0.015736272558569908,0.07470950484275818,0.11558820307254791
0.07513500082273968,-0.17275504263807087,-0.19847791477441787,-0.014620408415794373,0.02737261727452278,0.07696091383695602
0.3716857061486691,-0.22119764130571856,-0.06441723485291004,0.0002800647635012865,-0.02426721900701523,0.1125451847910881
0.9241869021963327,-0.3736360364988446,-0.15824235049784183,0.018986374139785767,-0.060047321021556854,0.18963570892810822
1.008573304497078,-0.5233433079613372,-0.13399755155742168,0.03205420821905136,-0.10714942961931229,0.27318522334098816
1.0545457319252192,-0.5844004552640021,-0.1305588092803955,0.0425044521689415,-0.11632908135652542,0.3540821969509125
0.9951804466996341,-0.6057094199482351,-0.041083705538511275,0.012137742713093758,-0.0385870561003685,0.4390057921409607
0.7443576468557119,-0.6209645644862204,0.08401099311709403,-0.004036433063447475,0.016631189733743668,0.43649762868881226
0.04544334378642961,-0.4061888277204707,0.01308159989118576,-0.006580129731446505,0.0071464828215539455,0.34053969383239746
-0.5046485443634912,-0.22157352541340514,-0.13551789299249647,0.006678417790681124,-0.018358610570430756,0.22130438685417175
-0.8631088947687298,-0.09374518227651715,-0.021788053438067435,-0.015230347402393818,0.0507376566529274,0.023877985775470734
-1.5031486004725099,0.0799029002111405,0.1443225462168455,-0.030818361788988113,0.11245615035295486,-0.14624793827533722
-1.1179194490745663,0.0893254113391973,0.014583236625790596,-0.02385963872075081,0.058035172522068024,-0.2385331243276596
-0.6594735241658986,0.1567360010555014,-0.1616898606032133,0.004535516258329153,-0.0021163122728466988,-0.2658105492591858
-0.7106013615958392,0.1007745694566518,-0.10062953496277331,0.0007719241548329592,0.004907574970275164,-0.311171293258667
-1.174226808034256,-0.021897377297747878,0.020280571484565732,-0.011331344023346901,0.04468667879700661,-0.48617294430732727
-2.1960670058615506,-0.6675513244204223,0.017877601996064186,-0.07173886150121689,0.2235734611749649,-0.8348550796508789
-2.477000062613189,-1.6295035283222794,0.11657236950397491,-0.05945279076695442,0.19114026427268982,-0.8626890182495117
-1.7682871451124549,-0.5154392933711409,0.08760580273866653,0.025889802724123,-0.062125563621520996,-0.7835806608200073
-0.88197075856179,0.4985221704376861,-0.17458382896780966,0.06560938060283661,-0.1968490332365036,-0.6034794449806213
0.39761264948975295,0.740888144114241,-0.4311293173074722,0.08739697188138962,-0.2764069736003876,-0.3740431070327759
1.6764854981191455,0.431762427579239,-0.15780220551490784,0.07778683304786682,-0.25673553347587585,-0.10828351229429245
2.3141078404828903,-0.025132450228836384,-0.1872568480581045,0.026241876184940338,-0.08858063071966171,0.1638164520263672
2.725601313950121,-0.48331141303069886,0.07844751377105712,-0.02346460148692131,0.09569516777992249,0.3378601670265198
2.601173847031593,-0.8093095000419765,0.1968207952171564,-0.04348544776439667,0.16711796820163727,0.45518574118614197
1.9651620086044073,-0.9003853169787674,0.1974579240769148,-0.09392247349023819,0.31580305099487305,0.5393938422203064
1.4268674709551035,-0.6317374490436166,0.045888475471734996,-0.14231690764427185,0.40455663204193115,0.5648393034934998
0.6994978568445891,-0.6839155992440878,0.192690563544631,0.021981356665492058,-0.1272023469209671,0.47014695405960083
0.07142560664447956,-0.6740517192903905,-0.23727321711480617,0.0002568860072642565,-0.01833418570458889,0.40587317943573
-0.7012400243367999,-0.8347629441197961,-0.5955079786032438,-0.016124485060572624,-0.016321634873747826,0.29769185185432434
-1.0386095463205127,-1.058824432157725,0.048810500398278237,0.025165697559714317,-0.002386112231761217,0.15113303065299988
-1.035622785594687,-0.9083135526947677,-0.12969547044932841,-0.008632894605398178,0.018899278715252876,-0.002248271368443966
-0.8323029837470501,-0.789145467609167,0.04448796102404594,-0.0025571584701538086,-0.02548203244805336,-0.1357261836528778
-0.6497390427455305,-0.43733434596005827,-0.15513094047904014,0.003698451677337289,0.010393800213932991,-0.25854721665382385
-0.3173047486742958,-0.11413182621775195,0.10028525156974792,-0.0013290636707097292,0.003947884775698185,-0.3394005000591278
-0.10772091799583286,-0.011321220888849346,-0.0970925930082798,0.005795199889689684,0.025191964581608772,-0.33710306882858276
0.04695170252276584,0.04901985056633129,0.0097597619920969,0.004311553202569485,0.019305845722556114,-0.28879013657569885
0.21647161743082105,-0.1506480229113251,-0.03033551703095436,0.012328602373600006,0.015253301709890366,-0.2586049735546112
0.2179827161135152,-0.28218778778677805,-0.07222586277723311,-0.005484749563038349,-0.024153491482138634,-0.23732447624206543
0.04250986588411033,-0.27444680000487714,-0.07893558954894542,-0.003451172960922122,-0.0042204647324979305,-0.23123827576637268
-0.20408969024159013,-0.31061529750563205,0.05077566299140453,-0.007859503850340843,0.011515354737639427,-0.2309224158525467
-0.33160219062864776,-0.17625473958840593,-0.13119184648692608,0.0023437216877937317,0.02563842013478279,-0.22170934081077576
-0.2224220868004486,0.1392800768039189,-0.02551788761615753,-0.007207705173641443,0.020014356821775436,-0.208151176571846
-0.17677138387365265,0.14540555568058042,0.014129063117504118,0.004687455948442221,0.01887921802699566,-0.18911448121070862
-0.1653305551931262,0.18010838280925526,-0.007864157503843307,-0.007061878219246864,-0.00205429270863533,-0.1531764566898346
-0.03826868236711016,0.26831226103892547,-0.0781874015301466,0.009751466102898121,-0.015977608039975166,-0.10115104913711548
0.058655977045604955,0.30097592875650153,0.03286357420384884,-0.0034474264830350876,-0.0002532387152314186,-0.06734274327754974
0.03778216607535723,0.04447130215018987,-0.017998598027229307,-0.020726025104522705,0.021430527791380882,-0.06597232073545456
-0.09747311675846576,-0.03379150270372629,-0.060652329361438745,0.010654800571501255,-0.00815825816243887,-0.07826653122901917
-0.255342359627597,-0.04547545595774427,-0.026504560565948486,0.011590393260121346,0.029863324016332626,-0.09626715630292892
-0.3339484249612316,-0.3950619786262512,-0.05221300231814384,2.712709829211235e-06,-0.000634665135294199,-0.13558101654052734
-0.43397495252955703,-0.5729254137866199,-0.02527648007571697,0.021481864154338837,0.059266407042741776,-0.16235405206680298
-0.42194037747327234,-0.4699151942323893,-0.009095745125412941,0.057032402604818344,0.19349291920661926,-0.14789895713329315
-0.15639288670625537,-0.3166893567223102,-0.2696791106790304,0.019424812868237495,0.11950594186782837,-0.11416788399219513
0.12285017113182693,0.06233735983893275,-0.2962345246493816,0.004082607105374336,-0.015306735411286354,-0.05829821899533272
0.4047485292516649,0.2462724430631846,0.24486089576482772,-0.04867367818951607,-0.17950047552585602,0.032767049968242645
0.7578599563769995,0.45721996331028636,0.2446650809317827,-0.05560189485549927,-0.19798627495765686,0.17105381190776825
0.9847948809593915,0.3955307651817798,0.34991467691063877,0.008256595581769943,0.03083217330276966,0.2931688129901886
1.0915083389457314,0.4053167210610583,-0.19767302813231943,0.004540420137345791,-0.03628108650445938,0.3162837028503418
1.004018271541223,0.42510706134326753,-0.3927881884753704,-0.011465170420706272,-0.040267616510391235,0.2996421754360199
0.7307105220362544,0.295290941922646,0.07648878091871739,-0.0059785256162285805,-0.020582593977451324,0.2725788652896881
0.4771463510623201,0.20899751869048921,-0.06373977398276329,0.010003238916397095,-0.027365142479538918,0.25271549820899963
0.3445870521470904,0.2778041658750735,0.0024029694885015487,-0.007829287089407444,-0.00870304275304079,0.22518746554851532
0.2285292080365121,0.16999909499343482,0.03516074523031711,0.011679544113576412,-0.02405524253845215,0.17419108748435974
0.09661805256539956,0.17514356347611174,-0.0854459943562746,0.001996024278923869,0.02960452437400818,0.09609390050172806
0.05143792629241943,0.1190663600104861,0.016626140630245208,0.001318671042099595,0.004211690742522478,0.01815120130777359
0.14241172589315101,0.13892399337524547,-0.09606675709187984,-0.010260486975312233,0.014669658616185188,-0.023517416790127754
0.2976296688022092,0.19195923532908782,0.006444353833794593,-0.008586952462792397,-0.008687086403369904,0.05921516567468643
0.33693960613384843,0.3046999359820038,-0.05940963582396507,-0.011391513980925083,-0.021839704364538193,0.13921165466308594
0.24625063309017567,0.5783759342774748,0.0032581250131130217,0.009934547357261181,-0.07449572533369064,0.21095161139965057
0.1604627299610525,0.7861030311733483,0.03844984990358352,0.006161917466670275,-0.037491921335458755,0.21179811656475067
-0.03498276744806208,0.7795964988235384,0.020360650983452796,-0.009755263105034828,-0.028294695541262627,0.15287141501903534
-0.14500984349441715,0.5922752437597141,0.014824059644341468,-0.0057099349796772,-0.007707330863922834,0.09781330823898315
0.09680440545035525,0.5761514266284182,-0.018271569749712942,-0.0012307644356042147,-0.0073920125141739845,0.10086368769407272
0.21013213047729803,0.5815406453860923,0.02466273209154606,0.005402379669249058,0.008781320415437222,0.1476016789674759
0.11282310910620726,0.47140218138713386,-0.014258826977014541,-0.012968105264008045,-0.012840351089835167,0.18787533044815063
-0.0953508273748681,0.49753275754153725,-0.04465688785016537,0.001874083885923028,-0.016354892402887344,0.21018093824386597
-0.35738216324709354,0.40082956570964307,-0.00023147066831588744,-0.007793457247316837,-0.001436396036297083,0.1830044537782669
-0.6710206810314208,0.34506592170521616,-0.01401274326145649,-0.007304085418581963,0.03385733813047409,0.12499706447124481
-0.8966653466075658,0.3306666633442044,0.045078328132629394,-0.002018243307247758,0.009763452224433422,0.008963667787611485
-1.2348308412745594,0.2671388150790706,-0.05249532639086246,-0.001309594139456749,0.02003668248653412,-0.09865527600049973
-1.2417507036656141,0.35880057867765425,0.001235094752907753,0.00039562792517244816,0.012443477287888527,-0.20996421575546265
-1.0427928233545274,0.5214990683341398,-0.0017360300123691558,0.01657606102526188,0.030222220346331596,-0.32133930921554565
-0.7898978203464299,0.5530004873393103,0.00965045639872551,0.0009393102955073118,0.034658510237932205,-0.4027308225631714
-0.4046110935423523,0.517368325204961,-0.00500233833193779,0.005982919130474329,0.018291357904672623,-0.4358426034450531
-0.17222221440300345,0.5012261321667582,-0.031333880418539045,-0.00023396394681185484,0.032438602298498154,-0.45747411251068115
0.03908709749435074,0.6479626807227731,-0.018173954594135282,-0.0055136727169156075,0.01931076869368553,-0.48074397444725037
0.36707876034248615,0.8649724236182867,-0.0005272387444972992,0.0019791307859122753,0.03603648766875267,-0.4481719136238098
0.6458692155748605,1.1340024958040564,-0.005776829835772514,-0.012576756998896599,-0.0031347163021564484,-0.35383543372154236
0.7371222157094627,1.2747019561529158,0.08683072671294212,-0.0031680744141340256,-0.002679315395653248,-0.23268474638462067
0.704267336268723,1.391528446548432,0.022332243317365646,0.000676686642691493,0.01128788199275732,-0.16065190732479095
0.4654966106051579,1.2690461223483085,-0.0042979894548654555,0.0082184923812747,0.009501167573034763,-0.11813454329967499
0.404033951241523,1.024444169780612,0.012171499308943748,0.0012782912235707045,0.005572761874645948,-0.09890427440404892
0.2775972268598154,0.6900890271820127,-0.01161503446996212,0.0017728405073285103,0.013207511976361275,-0.09510340541601181
0.09216370350504294,0.5036148539341986,-0.02733516617119312,-0.009612789377570152,0.025181066244840622,-0.1000446081161499
-0.09526569724152796,0.47483237503152337,0.006465981143712997,-0.0044446587562561035,-0.013671789318323135,-0.13337646424770355
-0.34692437252085656,0.6111982996881008,-0.011492869395017624,0.005976801738142967,0.010877338238060474,-0.16728805005550385
-0.3498391639890149,0.6726001322425902,-0.03858370541632175,-0.009824797511100769,-0.03141845390200615,-0.2177368402481079
-0.24906702395146713,0.7278349665999412,0.09040040189325808,-0.0011988149490207434,0.00956704095005989,-0.2181689292192459
0.05532409267653711,0.5982665931290015,-0.04935702836513519,0.007145135197788477,0.0007796748541295528,-0.1695404052734375
0.36697003927100447,0.33030075264126063,-0.029127894806861877,0.009041589684784412,-0.020090807229280472,-0.10251788794994354
0.5125114962909371,0.27559891091575844,0.0021709142982959746,0.01127917692065239,0.004626523703336716,-0.043915558606386185
0.5059054490894079,0.22147444895310325,-0.07308803256452083,0.004092603921890259,-0.01584661565721035,-0.013072039000689983
0.34463432535491884,0.3059214771335944,-0.005465864190459251,-0.00441406574100256,-0.003324698656797409,-0.010812879540026188
0.13056691038846038,0.3826096530819312,-0.04136895222067833,0.015752192586660385,0.013657458126544952,-0.021860318258404732
-0.03400714333195937,0.598407134110853,0.05111527020931243,0.0061251320876181126,0.0044437190517783165,-0.03279498964548111
-0.10492466574027202,0.6774617469295859,-0.046454877182841296,0.0028731711208820343,-0.004416750743985176,-0.01977122761309147
-0.14789116195123642,0.5388966317282989,-0.016385902133584023,-0.002572993515059352,0.010324910283088684,0.0008309870027005672
-0.19430252878591417,0.39001536276116966,0.007713935378193855,0.016525892540812492,-0.019479449838399887,0.001939498819410801
-0.18957272378504275,0.42474206395577635,-0.04641805230379104,0.010412873700261116,-0.037992678582668304,-0.01705842837691307
0.013114910789032,0.3992070425417274,-0.027734394621849057,-0.030932597815990448,0.07952076941728592,-0.011313369497656822
0.40455183763578534,0.386827380374819,0.18143033386170862,0.002642405917868018,-0.03478849306702614,0.0432119257748127
0.7338301153615117,0.5482976068779826,-0.16035305904150007,-0.001245254185050726,-0.0034482539631426334,0.08262878656387329
0.647824368230626,0.555645777683705,-0.007733809122443198,0.028281480073928833,-0.02038276195526123,0.11665228009223938
0.5916414759008214,0.6077572558561339,0.09491466444730758,0.009207392111420631,-0.0460284948348999,0.13143828511238098
0.5113518048617989,0.5184586046596988,-0.11023439865410327,0.014532744884490967,0.01643533445894718,0.17827747762203217
0.4238113589769229,0.18743320927200838,0.005288754057884216,0.015488818287849426,-0.06372794508934021,0.19732974469661713
0.3146991327531636,0.0879671285980381,-0.022374328893423077,0.006512245163321495,0.04962652176618576,0.1920384168624878
0.27381350707001983,-0.1682338936855085,-0.1449158359348774,-0.004459179472178221,-0.013000108301639557,0.1823703497648239
0.18163093446772544,-0.2581902964046225,0.08613982183933258,0.012255104258656502,-0.001775768119841814,0.1723334938287735
0.22955159162050112,-0.11557174109406769,-0.07460135973691939,0.007951701991260052,-0.023424871265888214,0.1623045653104782
0.2296794740501791,-0.11028141613360494,-0.050205169627070424,0.003348270198330283,0.00498132174834609,0.11886651068925858
0.12467820854289456,-0.06544681536266579,-0.07505377967953682,0.004137365147471428,-0.007235929369926453,0.061936117708683014
0.06570685453834012,-0.05833585084630176,0.017581249397993087,-0.018708012998104095,0.014780070632696152,0.051103778183460236
0.2508858186101541,-0.04281551603348926,-0.07114332823753357,-0.0035575551446527243,-0.009485054761171341,0.09471597522497177
0.4757635184017941,-0.16885074694221838,-0.03762567403912544,-0.009487240575253963,-0.015668796375393867,0.15171849727630615
0.7050095329381525,-0.10727200518455356,-0.02071077959537506,0.04219166561961174,0.09493814408779144,0.20743875205516815
0.7470036313198506,-0.16804918476836755,-0.06139701024889946,0.03676241263747215,0.010140687227249146,0.23592905700206757
0.6592520634349435,-0.22311854463201014,-0.24582711044847963,-0.040356338024139404,-0.11111943423748016,0.2641596496105194
0.5193747696565464,-0.012377506742440163,0.09997370140254497,-0.016536910086870193,-0.0626085177063942,0.3039117157459259
0.5576664333237334,0.14310904224123805,0.3129962743580341,0.013267057947814465,-0.024920791387557983,0.3360946774482727
0.4062659480772912,0.4541821665169671,-0.17647183467149732,-0.032967887818813324,0.13294658064842224,0.3481392562389374
0.10144522612667642,0.6375953812915831,-0.20191490348577498,-0.012772073969244957,-0.01835346594452858,0.34900715947151184
-0.19056697725309057,0.6140076580204069,0.052200142836570734,0.0061796000227332115,0.04562148079276085,0.3528147041797638
-0.33474056171961125,0.6828064689584076,0.15753040283620356,-0.00520248431712389,-0.03526164963841438,0.36043402552604675
-0.44714960099905726,0.3925122210782021,-0.1804904226630926,-0.006192761939018965,-0.017350658774375916,0.3396596610546112
-0.450378171124123,0.18846949351718648,-0.010787935996055603,0.04719829186797142,0.05790148675441742,0.29250144958496094
-0.3785548612657934,0.07744454727359115,-0.02303425410687923,-0.04037207365036011,-0.11083726584911346,0.2320639044046402
-0.28392164410836995,0.10896501803910359,-0.14752631069421768,-0.004353352822363377,0.02628437429666519,0.19036465883255005
-0.21046381011707707,0.161202478945069,0.41475861274302006,0.024278897792100906,-0.04781951755285263,0.15868015587329865
-0.14672825565170497,0.04707445211960003,-0.34554128413200375,-0.004383905790746212,-0.032442159950733185,0.12033035606145859
-0.1949194003089331,0.13797504035364835,-0.0036252047598361965,-0.009594282135367393,0.012180855497717857,0.0807647779583931
-0.22139833324328065,0.307447627254948,0.009821136790513992,-0.0080025102943182,-0.03184758499264717,0.037613045424222946
-0.19084431462343782,0.22363920750524846,-0.03788286367058754,-0.0032927189022302628,0.013469072058796883,0.01595458574593067
-0.1988534335559234,0.16686088829925283,-0.05299801521599293,0.009882471524178982,-0.00920534785836935,0.01257876306772232
-0.19669501341301945,0.01815015359343961,0.009393851289153099,-0.0028604029212146997,0.012166809290647507,-0.007341714110225439
-0.09921019708360544,-0.12783838960686697,-0.05899696336984634,-0.002048671478405595,-0.0015447423793375492,-0.023627743124961853
-0.03369748829432064,-0.052238739547599104,-0.027733225578069686,0.01976320520043373,-0.005003977566957474,-0.05449219048023224
0.05433036893145181,0.24715547297541052,-0.06424538541734218,-0.01090495940297842,0.010968329384922981,-0.08435660600662231
-0.08752698361510411,0.28899039874002336,0.014151274949312209,-0.02275962010025978,0.009291592985391617,-0.1471986174583435
-0.22405445550894362,0.35469935390390456,0.05693652370870113,-0.003029057290405035,0.0031250440515577793,-0.18799132108688354
-0.3454586473498493,0.20044316869908943,-0.08641922330260277,0.04254255071282387,-0.01034359447658062,-0.20555642247200012
-0.1648340951793827,0.17227043745890258,-0.01400397543311119,0.016052618622779846,0.0012731142342090607,-0.19038492441177368
0.13497491782275028,0.20260231949435545,0.01712707588970661,0.0206495001912117,-0.017113082110881805,-0.16279643774032593
0.16958309807106853,-0.002884378063585609,-0.12474106291234492,-0.021453745663166046,0.032408129423856735,-0.11393196880817413
-0.06978264347673394,-0.25585876645082606,0.1538859088540077,-0.04092780873179436,-0.030345145612955093,-0.06836182624101639
0.01400529745722888,0.21777773159332572,-0.20060849706232547,-0.0350337028503418,0.024157244712114334,-0.045897528529167175
0.18583669732818378,0.6660689769081771,0.12574293343126772,-0.014219963923096657,-0.012867302633821964,-0.010668497532606125
-0.0013687332105204405,0.41517734961174424,-0.06865852568447589,0.011292587034404278,0.02630167081952095,0.011046918109059334
-0.14582063015433958,0.22543935226239262,-0.016273673930764197,0.0011674342676997185,0.006378820165991783,0.039650626480579376
0.03258219084604643,0.35766916349492966,-0.013899930536746978,-0.017187871038913727,0.04473526403307915,0.06897122412919998
0.2582858474672772,0.23259578162198885,-0.0527899254232645,0.03231839835643768,-0.010722517967224121,0.16775347292423248
0.20587779750106855,-0.2639015136582777,0.015437223106622695,-0.02083989419043064,0.0012049819342792034,0.2681290805339813
0.3066937036151066,-0.23632009937474502,-0.05353285274505615,0.013039911165833473,0.007733177859336138,0.3275301456451416
0.3272843639621511,0.2025654580826871,0.012764204505085945,-0.019429616630077362,0.004954169038683176,0.35222432017326355
-0.049263527695671654,0.12876794380825013,-0.004463993671536446,0.011141659691929817,-0.03310289978981018,0.340848445892334
-0.12759994120849297,-0.11338975741248578,-0.008202011156082153,0.00029843137599527836,-0.028660859912633896,0.32624492049217224
-0.15669694768674672,-0.28479022537013515,-0.045916532522439955,-0.007711292244493961,-0.004313175566494465,0.34630250930786133
-0.21212551451791076,-0.28740157691230994,-0.022996844705939292,0.0012859269045293331,0.027418676763772964,0.38399940729141235
-0.29930271658096463,-0.23218572125006465,-0.06266191561818123,-0.025576580315828323,0.009061772376298904,0.4165552258491516
-0.37755320994257924,-0.14400063905240967,-0.06291442907452582,0.028511160984635353,-0.014229455962777138,0.4331119954586029
-0.6039295873267576,0.10610374685646966,0.008475567400455474,0.011255741119384766,0.030810721218585968,0.4220532178878784
-0.9274717690858989,0.18638371848538518,-0.02561725633740425,0.03443003073334694,-0.06239323690533638,0.3651396930217743
-1.015895317948237,-0.09890344182252883,0.12102233465015888,0.025522824376821518,0.05518559366464615,0.29222553968429565
-0.9724607384346425,-0.3030183395706117,-0.18900164589881896,0.018998904153704643,-0.02701166644692421,0.21921615302562714
-0.7851569824948906,-0.4777447918795049,-0.029957915890216825,-0.014494074508547783,-0.01926320046186447,0.15562918782234192
-0.5126997123394161,-0.7114172080233693,-0.014076456147432326,0.027340011671185493,0.01418233197182417,0.14826343953609467
-0.283442372691445,-0.7410863701000809,-0.14606792857944964,-0.026391126215457916,-0.06801906228065491,0.15950649976730347
-0.1781061761413701,-0.8223675729271024,0.14869476995170117,0.019581591710448265,-0.05292309820652008,0.18233731389045715
-0.18920363474432378,-0.8978795447029173,-0.20564532218575476,0.012185459956526756,0.017268240451812744,0.19195584952831268
-0.2868558709293604,-0.8546553200043737,-0.037142858958244325,0.005443895235657692,0.0034250598400831223,0.19423389434814453
-0.26679360010428355,-0.8100191826812922,-0.09566519055366515,-0.021606631577014923,-0.027441509068012238,0.1953316479921341
-0.11838563860417343,-0.7268043083779513,-0.03506605268418789,-0.0011014480842277408,-0.031483329832553864,0.22659167647361755
-0.026982188015058636,-0.6146482940115034,-0.028352818781137466,-0.0017882772954180837,0.015453020110726357,0.2525487244129181
-0.12836527215833776,-0.5571367468938231,-0.11318097350001334,-0.015552043914794922,-0.05140182375907898,0.2759905755519867
-0.21291810793401672,-0.5100178528442979,0.03601414718925953,0.006028615869581699,-0.0018486534245312214,0.29587027430534363
-0.2822183107892051,-0.6442504552666097,-0.1897884123623371,0.0015341208782047033,-0.02581491693854332,0.2950539290904999
-0.49769138216935094,-0.7368569889020175,0.08675356982350349,0.012672791257500648,0.029394540935754776,0.2569725811481476
-0.7979485133983194,-0.8995838644027709,-0.2657709973245859,0.025829773396253586,-0.011848929338157177,0.18967854976654053
-1.0702346647705883,-1.1632502175983042,0.08273498183190822,-0.014729637652635574,0.006826221011579037,0.11706826090812683
-1.040383351060003,-0.7334405315220356,-0.041485856598615645,-0.031040595844388008,-0.028421642258763313,0.04958517476916313
-0.8979691957477479,-0.7067246662929654,-0.000675122782588005,0.007639155723154545,0.04999806731939316,-0.010684290900826454
-0.49529758236799387,-0.8319000289693474,-0.21854104411602018,0.005945542827248573,0.023072056472301483,-0.049713149666786194
-0.22277274513533338,-0.6778403709836304,-0.04044365406930446,0.008988204412162304,0.024469951167702675,-0.06232348456978798
-0.01841850622302154,-0.7592345326658337,-0.08277999001741408,0.0007153558544814587,0.006646499503403902,-0.014016558416187763
0.19243852501232175,-0.7479227919913828,-0.05090133519768714,-0.0021771034225821495,0.0025004898197948933,0.06968765705823898
0.2844873882323503,-0.8338447332963347,-0.08201894251704216,0.0026052319444715977,0.009860588237643242,0.14609326422214508
0.10603540346114895,-0.8859886889662593,-0.017819734328985214,0.0018478292040526867,0.016545388847589493,0.17357788980007172
-0.24773038678653536,-0.8357029283836483,-0.05870294885933399,-0.0250474251806736,-0.10546152293682098,0.10027068853378296
-0.7686931928195059,-1.078048772587627,0.24230244345366952,0.011863719671964645,0.00010218843817710876,-0.01080656610429287
-0.7663483101937919,-1.2587078298158942,-0.4563268869280815,0.008711311966180801,-0.01211945153772831,-0.14229413866996765
-0.6394849944304675,-1.2625069298379124,-0.07699731496274471,-0.0034524095244705677,0.003346589393913746,-0.2375471442937851
-0.3118240157082677,-1.2395135922633111,-0.041381811702251435,-0.0022641748655587435,-0.00034942012280225754,-0.29058003425598145
0.04559741553671192,-1.087260253047198,-0.12023089201152325,0.008159438148140907,0.023506909608840942,-0.2914716601371765
0.3991186336059123,-1.0085957355245947,-0.04794833061099052,0.004574420861899853,0.01972416788339615,-0.2525147795677185
0.5524769383892416,-0.695429803688079,-0.09013502895534038,0.005425300914794207,0.00462564080953598,-0.20050910115242004
0.6783046274945139,-0.4737545166669413,-0.0829231978803873,-0.0009601556230336428,0.0013382146134972572,-0.1558525413274765
0.6515951920062303,-0.4134937804389745,0.0025157822132110593,0.0017221802845597267,-0.017318028956651688,-0.127278670668602
0.5543821874886751,-0.4191016469160095,-0.059116205835342404,-0.0013042634818702936,-0.008768355473876,-0.10511834919452667
0.5664774432236328,-0.47788157000169157,-0.09306523718833923,0.0012806006707251072,0.006265720818191767,-0.10646750032901764
0.5837501746617257,-0.6037331514392048,-0.08467150285243988,-0.01700281724333763,0.03728577867150307,-0.10582548379898071
0.5490122944859788,-0.6088611619774252,-0.013294365859031676,-0.01574074476957321,0.023473557084798813,-0.08874131739139557
0.407864944239147,-0.6679083211645483,0.009900631767511367,0.008788183331489563,0.013010187074542046,-0.08030335605144501
0.20247564264107495,-0.8292092555154115,-0.10889175187349319,0.008560482412576675,0.009540621191263199,-0.09510786831378937
0.055771329553960816,-0.7283500765152275,-0.10740355914235114,0.01716301590204239,0.005512367468327284,-0.1105867251753807
0.027739938446646555,-0.3873546191193163,-0.0343640418946743,-0.006179196760058403,0.015103508718311787,-0.11624591052532196
0.1257501668896526,-0.2753619420884177,-0.0443938529998064,-0.0076710996218025684,0.006897243671119213,-0.12241964042186737
0.1447423151320312,-0.19385938812829553,-0.020896657556295394,0.007246600929647684,0.01804441586136818,-0.11148029565811157
0.3361056760603562,-0.0577545620933175,-0.09463117133080959,-0.014776675030589104,0.036972567439079285,-0.12162267416715622
0.38551739375479516,-0.30653255823664366,0.017760113096237182,0.018781712278723717,0.04319623485207558,-0.09777575731277466
0.3721636989239603,-0.4465110108345747,-0.08756196359694003,0.002194746630266309,-0.015663620084524155,-0.09545694291591644
0.3170522717505693,-0.6638458940312266,-0.031439678880572315,-0.015528599731624126,0.009409284219145775,-0.08483228832483292
0.32793837089147415,-0.7101181081235408,-0.06854980461299419,0.0028328304179012775,0.012921728193759918,-0.04994221776723862
0.4191727759234607,-0.48739853621385987,-0.04682371049523353,0.013090659864246845,-0.05641552433371544,-0.05122993141412735
0.2962081480991095,-0.5469366207230836,-0.1310644207149744,0.0028329615015536547,-0.007227472960948944,-0.044277217239141464
0.17715097604207694,-0.4434275848012417,0.03982932156324386,-0.001841575256548822,-0.04776865243911743,-0.0567709356546402
0.11120508858347311,-0.47537696676962077,-0.10861059684455394,0.025411350652575493,-0.025039639323949814,-0.061629608273506165
0.046903584498143754,-0.5150728712115437,-0.009711246675252914,-0.03905486315488815,0.0027054743841290474,-0.06178935617208481
0.05116087204986251,-0.5329828045746311,-0.06580196720957755,0.005680650006979704,-0.006368714384734631,-0.05982394516468048
-0.049933426313870585,-0.4697003824379295,-0.03901040639579296,0.01321924477815628,-0.07858583331108093,-0.07617662847042084
-0.05968424694768618,-0.5283050585545599,-0.029127310284972188,-0.021637272089719772,-0.08288443088531494,-0.07776813954114914
-0.07485278634787537,-0.4766496170539409,-0.05125029476583004,0.0010936511680483818,-0.02645602822303772,-0.08799167722463608
-0.16219457698864861,-0.5082114610094577,-0.027130583509802818,-0.013890091329813004,0.018025420606136322,-0.1288464367389679
-0.24195682662008328,-0.3979236151350662,-0.014411971712112425,-0.005034548696130514,-0.055383551865816116,-0.18972869217395782
-0.18476894023250787,-0.14041839665146544,-0.12932313000559806,-0.006701154634356499,-0.01171383447945118,-0.23250997066497803
-0.0699481042707106,-0.04460095641184598,0.05297112720906734,0.008423072285950184,0.029005087912082672,-0.23324093222618103
0.19515220441780984,-0.01852154418909922,-0.10803542730510234,0.022249139845371246,0.006553309969604015,-0.21181313693523407
0.4629889386331662,0.006466930991783738,0.05956394960284233,0.012464385479688644,0.0215619970113039,-0.16133759915828705
0.5405548472641035,-0.12319387000296264,-0.08855155915617942,0.011435339227318764,-0.04462980479001999,-0.10604211688041687
0.5680935001181439,-0.3220511760164052,-0.04126432280242443,-0.012511290609836578,0.06064746528863907,-0.03820683807134628
0.4704923365332186,-0.35313882658891377,-0.07371931620538234,-0.01799873262643814,0.014342283830046654,-0.006605768576264381
0.3819869546063244,-0.2565606859087944,-0.11546528504490852,-0.002680187812075019,-0.005430072546005249,0.010225212201476097
0.2051286961668171,-0.2933119517335668,0.030011107382178305,0.0056059714406728745,0.0006840131245553493,0.00598679156973958
0.03455098615138558,-0.13350132900569586,-0.047511108237504956,0.014243143610656261,-0.04794988036155701,-0.011602019891142845
-0.03865741910650394,0.20604013018961995,-0.06396072325706481,-0.002320386003702879,-0.0019182050600647926,-0.026162587106227875
-0.11299060202706604,0.38482320094555617,0.021470073530077932,-0.011892225593328476,-0.004296728875488043,-0.04409109428524971
-0.1641539856944233,0.25449202640857543,-0.04736205515563488,0.0223163440823555,0.06266419589519501,-0.0428849495947361
-0.18491309794355182,0.1626862877620384,-0.02670095992088318,0.008827314712107182,0.014030531980097294,-0.06010947376489639
-0.29808362311478703,-0.08835656630704179,-0.045861587464809415,-0.011991946958005428,0.07465367019176483,-0.08583002537488937
-0.47337801150474695,-0.15924897025711834,-0.05977496200501919,-0.011262625455856323,-0.012945236638188362,-0.13241589069366455
-0.5483994232846424,-0.15232786575704813,-0.04614683414697647,0.014878429472446442,6.377324461936951e-05,-0.15876467525959015
-0.5267697022134438,-0.1693355713170953,-0.0007984569013118743,0.0019904354121536016,-0.026900585740804672,-0.16602596640586853
-0.2232825578209944,-0.06510213011084125,-0.0793763190537691,-0.0001792418770492077,0.04692996293306351,-0.16084958612918854
0.03603060056713875,0.03981229736320674,-0.016070260313153267,-0.001350995386019349,0.0018371185287833214,-0.16380859911441803
0.1012514205876272,-0.04375100678531453,-0.07474807473123073,0.006035814061760902,0.10319862514734268,-0.14768609404563904
0.10538546078559011,-0.03946004985943436,-0.073660279494524,0.034095123410224915,0.14676111936569214,-0.12658235430717468
0.14870021331179886,0.13179881767043844,-0.095161917206645,0.02943272888660431,0.12987881898880005,-0.12318043410778046
-0.015284082938102073,0.2557295688468963,-0.2388742225706577,0.0072808656841516495,0.07788491249084473,-0.11941801011562347
-0.18494078966807573,0.28899229843616486,0.08646656957566738,0.026210082694888115,-0.041640423238277435,-0.10347633063793182
-0.09530354503388516,0.2591892625804059,0.10281915396153926,-0.010500416159629822,-0.08433106541633606,-0.06413865834474564
0.09965407752674073,0.19656081084040924,0.10906710844039916,-0.05102546885609627,-0.1524030566215515,-0.028216341510415077
0.10142516058618202,0.1570412676123902,0.34842239252626894,-0.05541142448782921,-0.1351466178894043,-0.0238117054104805
-0.08531473265942185,-0.08739446154292672,-0.020382862815260885,-0.0032864364329725504,0.06854020059108734,-0.07132596522569656
-0.2829948663859628,-0.21694772877627982,-0.24590485185980795,-0.0012332965852692723,0.009933192282915115,-0.16643625497817993
-0.3969800141420215,-0.2390472958489321,0.015364742392301558,0.016717208549380302,0.08861761540174484,-0.22200150787830353
-0.10294758438048884,-0.06473499556519091,-0.27772914614379407,0.02827213890850544,0.02988608367741108,-0.19716137647628784
0.19125532484343274,0.10337344510974363,-0.04498363558650016,0.01711803488433361,0.034332435578107834,-0.12600526213645935
0.28251572283320125,0.1500210135867819,0.11229016214013099,-0.016365356743335724,-0.05216863378882408,-0.0634412169456482
0.3255428540570661,0.21102202852172774,-0.002189034476876259,-0.03410309553146362,-0.1474553644657135,-0.009981939569115639
0.273302379210107,0.09776791672026738,0.15862404329180715,-0.01940617524087429,-0.12857595086097717,0.02811298333108425
0.137553316943394,0.026494495829660444,0.10602876365780829,0.015309453010559082,0.008002445101737976,0.030037611722946167
-0.2794767204634845,-0.05919297913229093,-0.11198328814804553,-0.013730188831686974,0.01518499106168747,-0.03006647154688835
-0.6203986011665314,-0.27118933257889,-0.014687281522154807,0.0038655751850456,0.003301743883639574,-0.11238588392734528
-0.6872911400917917,-0.28080415140865367,-0.0986170260965824,-0.016515064984560013,0.044332265853881836,-0.20320792496204376
-0.6393640714645386,-0.16360170384021475,0.011066752937436104,-0.014382265508174896,-0.05748627334833145,-0.29864126443862915
-0.5075369592813774,-0.0245411698048003,0.03231295458376408,-0.0015093438560143113,0.02561367303133011,-0.34336772561073303
-0.2752460423574783,0.14932899446832015,-0.15203589707314968,0.010787421837449074,0.07113870978355408,-0.3527728319168091
0.0659022264133906,0.3541880433809012,0.033708792856335636,0.032760366797447205,0.05388782545924187,-0.299317330121994
0.3534995861927047,0.42845286463983356,-0.16302432407736778,0.028089167550206184,-0.00957284215837717,-0.2143584042787552
0.5585096426822245,0.4308607294991612,0.303611775419116,-0.07723326236009598,-0.20755623281002045,-0.1452682763338089
0.725536407333985,0.08311313096191733,0.08001987765431404,-0.046213045716285706,-0.029803168028593063,-0.06371691823005676
0.9286039879862219,0.2539366027492098,-0.3675046941369772,-0.019006192684173584,-0.03561977669596672,-0.02325657568871975
0.8616616185698658,-0.057960733923595395,0.15518705458045004,-0.0012400588020682335,-0.04839576408267021,0.002173706889152527
0.6211074070230126,0.09414766213018447,-0.21618892803192138,0.029715992510318756,0.017733987420797348,0.006095743738114834
0.4523351869434118,0.10410839005447924,0.1396434484899044,-0.015185019001364708,-0.022667570039629936,0.0007102922536432743
0.28366761454837397,0.05269625579044222,-0.08062076615691184,0.010085982270538807,0.021492168307304382,0.015120389871299267
0.15323953724186867,0.4614090124979615,0.005112228447198867,-0.0024013323709368706,0.06673802435398102,0.04197137802839279
-0.07736644053608178,0.5257749555550515,-0.09872457812428474,0.014076445251703262,-0.027890481054782867,0.04212477430701256
-0.32543705559503283,0.6465447767488658,0.047780572828650475,-0.007402251474559307,-0.02933746948838234,0.02968314290046692
-0.3386334409723058,0.5054411925785243,-0.11096388197243214,-0.030635135248303413,0.06402496993541718,-0.004647131077945232
-0.2969071084150113,0.3840008517120033,0.16433657571971416,-0.004014972597360611,0.03046405501663685,-0.05653015151619911
-0.27246410175506025,0.506768787920475,-0.19295067578554154,0.017995519563555717,0.05145162716507912,-0.11203522235155106
-0.29157413162291046,0.2661077732645906,0.031527357164025306,0.012850961647927761,0.10071343928575516,-0.15271039307117462
-0.2589598377387039,0.12430827925195917,-0.1903296796321869,0.04556203633546829,0.1836509257555008,-0.16770106554031372
-0.17514643128663301,0.23439207218792288,-0.21735504920184612,0.02169107086956501,0.06459398567676544,-0.20159253478050232
-0.299926328372024,-0.18138033897383138,0.37669045563340187,-0.020640140399336815,-0.07899539917707443,-0.21796591579914093
-0.2748550885448232,-0.1868808543525636,0.1441097802489996,0.02143685333430767,0.024419235065579414,-0.17515762150287628
-0.09495740761049092,0.340462008106336,-0.31886312056481836,0.00864968542009592,-0.016686655580997467,-0.18813307583332062
0.05044178226138465,0.5168552976489067,0.19468202962279318,0.014399725012481213,0.05896545201539993,-0.1663805991411209
0.2504787173802964,0.38910383740682153,-0.3073457012504339,0.0125770578160882,0.06739675253629684,-0.12320250272750854
0.3136732237715274,0.47187926084697246,0.07901859165728092,-0.002725330414250493,0.00933556817471981,-0.09788322448730469
0.2796985830532387,0.2378406417392194,0.10206044454872608,0.009801113978028297,0.07243065536022186,-0.05726149305701256
0.23327897811317816,0.21662644266635178,-0.21307167279422282,0.028023941442370415,0.11488162726163864,-0.026764579117298126
0.14698745457716286,0.1707951955408789,-0.11401391719281673,0.035978805273771286,0.12701073288917542,-0.020731719210743904
0.09608021022849715,0.19794570759385824,-0.08888941280841826,0.025121096521615982,0.11748034507036209,-0.017168674618005753
0.030074948132317512,0.11628387141879647,0.0541582911670208,-0.008326342329382896,0.07055144757032394,-0.012681249529123306
-0.046900036267610266,-0.1547158386058174,0.21486089429855346,-0.02107812836766243,-0.045384276658296585,-0.04661021754145622
-0.13403736297800206,-0.36907570631336417,0.179406134557724,-0.045186128467321396,-0.13459113240242004,-0.07715507596731186
-0.18899949047435075,-0.41816659455560146,0.09050678487718104,-0.03644906356930733,-0.08534198999404907,-0.08149934560060501
-0.2598347391434014,-0.10349153679776936,-0.2450017655402422,-0.0043252138420939445,0.007557322271168232,-0.0987238734960556
-0.3916995529884472,0.18914242434268816,-0.27493922316431996,0.04221082478761673,0.11063224077224731,-0.13509336113929749
-0.4549929714431986,0.39328152495026586,-0.22719956686794757,0.034778743982315063,0.07233784347772598,-0.19507759809494019
-0.4749104817690327,0.14072200097423046,0.13867431119680404,-0.0016161366365849972,0.0008217748254537582,-0.2706413269042969
-0.22534445878686382,-0.012230554286111146,0.24865970352590083,-0.03567875549197197,-0.13564743101596832,-0.25003668665885925
0.14796119498014448,0.06265475522503257,0.1111439147144556,-0.03299535810947418,-0.0850958377122879,-0.19723232090473175
0.43530105003416536,0.13924650332788005,0.0589028553456068,0.010325662791728973,0.08383119106292725,-0.1381968855857849
0.574212311792001,0.35256351091898974,-0.220178874450922,0.01860569603741169,0.10964388400316238,-0.09527844190597534
0.6301499606564641,0.6297021438237279,-0.4100637329250574,0.02145431749522686,0.0922037810087204,-0.05507872998714447
0.415304446590133,0.424721130765602,0.05591185683608055,-0.0015013329684734344,0.046091143041849136,-0.023477930575609207
0.09317896322850137,0.02438435354158282,0.04483925867974758,0.001431310549378395,0.016876153647899628,-0.024545850232243538
-0.2053878037607297,-0.13398102054772898,0.050371173843741415,0.0021136123687028885,-0.0077674067579209805,-0.04373418912291527
-0.38830388266816734,-0.053515408419910815,-0.06005436346828937,-0.0163816399872303,-0.038040902465581894,-0.06831509619951248
-0.4703466079195961,0.09180062408000231,0.07627367686331271,-0.018677551299333572,-0.07345082610845566,-0.095027394592762
-0.2651323706274852,0.4717102974882349,0.03017769612073898,-0.026415372267365456,-0.12229076027870178,-0.11711303144693375
-0.09602145664542913,0.429010644653067,0.22979250597059725,-0.011369312182068825,-0.027574632316827774,-0.13182565569877625
-0.14376167919738217,-0.030456439996883272,-0.006052724167704582,0.033012427389621735,0.08994439244270325,-0.13279353082180023
-0.0017026072333799673,0.14990898631336166,-0.32867022882997987,0.052332594990730286,0.17707957327365875,-0.14006608724594116
-0.05073973772807512,0.17579910477539523,-0.38670331560373306,0.05107415094971657,0.12669159471988678,-0.14784619212150574
-0.08599134414619766,0.24542369901305064,-0.10225742842555045,0.004902396351099014,0.02614261955022812,-0.18493950366973877
-0.0501346342746634,0.17938907382506877,0.1522533392161131,-0.017932124435901642,-0.04469512030482292,-0.20063155889511108
-0.09064434845065697,-0.06847166134286671,0.25386545547544953,-0.030398381873965263,-0.10064786672592163,-0.20949482917785645
0.0177446963313967,-0.10096600037552415,0.1310299339234829,-0.032245930284261703,-0.10443124920129776,-0.22713437676429749
0.010297398833022452,-0.1645154211516492,0.03211304809749126,-0.031829144805669785,-0.09500738978385925,-0.23650924861431122
-0.06414932746461127,-0.15663268681149928,-0.03625789281725883,-0.0074450052343308926,-0.007543967571109533,-0.23551587760448456
-0.12928591240090317,-0.2874200258844532,-0.08415361645817757,0.025627726688981056,0.06283831596374512,-0.23953485488891602
-0.19168659240016714,-0.051807307594083245,-0.30591771427392955,0.023103991523385048,0.051191993057727814,-0.23397593200206757
-0.27206326586920765,0.11056006867820396,-0.18305998089015482,-0.005822197999805212,0.06417810171842575,-0.20386596024036407
-0.24219120163153857,0.2010488977735862,-0.056609191450476645,-0.0001645700540393591,-0.04900522530078888,-0.16801364719867706
0.0036387081288034094,0.3711113403268158,0.13236556644141673,-0.02709711715579033,-0.1303514838218689,-0.13885389268398285
0.2530941788420081,0.5769979239225387,0.21452654777765273,-0.042392175644636154,-0.13129907846450806,-0.0821053609251976
0.34953367823641746,0.5949762828793377,0.20658757147192955,0.005409701261669397,0.0011790725402534008,-0.02174961380660534
0.20817425614148377,0.36579931499119844,-0.14118717080056667,0.04930921643972397,0.1455228179693222,-0.004061689600348473
0.12938996643042192,0.5987700491391122,-0.351700975805521,0.049537450075149536,0.17539602518081665,-0.020726686343550682
0.13605695003895088,0.8558001061253249,-0.2648988906651735,0.056526556611061096,0.20614974200725555,-0.0023715447168797255
0.2191473029134795,1.1507220138061791,-0.02025894417464733,0.08368494361639023,0.2868022322654724,0.06944698095321655
0.3207083831053227,1.2631069415576754,-0.0855856950879097,0.08474529534578323,0.30348849296569824,0.1518455594778061
0.2630660126822069,1.1624831056833267,-0.19261574474275112,0.05193008854985237,0.1878303438425064,0.21142739057540894
-0.042056295164022595,1.0275018768507986,0.0028811083942651746,-0.004324129782617092,-0.01670389249920845,0.20411542057991028
-0.4362417649503797,0.832588157363981,0.35069501363337036,-0.05487172678112984,-0.1979498416185379,0.15163969993591309
-0.7021870228633285,0.6959953286163508,0.5040507611334324,-0.06451601535081863,-0.21650969982147217,0.08767016977071762
-0.6958614731036126,0.6655399845980108,0.34084465074837206,-0.027449605986475945,-0.1015828475356102,0.012403378263115883
-0.5058873654434457,0.6674541476562619,-0.09089549193382263,0.009628567844629288,0.03308871015906334,-0.07499297708272934
-0.41151897323466835,0.5070202053982764,-0.33613983405828474,0.02932344377040863,0.11176061630249023,-0.14413104951381683
-0.30726894621979445,0.37965836552828547,-0.3106120095700025,0.035191845148801804,0.12674838304519653,-0.19472946226596832
-0.17294970669364557,0.23058559257704764,-0.15643734690248964,0.0228387713432312,0.07178047299385071,-0.20752649009227753
0.01148812015466392,0.17968005612827836,-0.027843700215220448,-0.002696555107831955,-6.172619760036469e-05,-0.18758097290992737
0.16618205745592712,0.18625589085463434,0.12639642890393732,-0.0130168367177248,-0.05654337629675865,-0.14151360094547272
0.23957126492410896,0.2294676396640949,0.1717681870251894,-0.00780702568590641,-0.06276559829711914,-0.10342233628034592
0.2607763125761412,0.35663134487979115,0.051663551741838454,-0.01797710545361042,-0.06093414127826691,-0.10007048398256302
0.17133571389205754,0.4151634672168642,-0.03791851950585842,-0.013571595773100853,-0.04219761863350868,-0.10232461243867874
0.18092269486682488,0.4888932682836428,-0.011545476365089416,-0.02511453442275524,-0.08693207055330276,-0.08415546268224716
0.33965777905136346,0.4222835283551365,-0.057899231261014934,-0.04105660319328308,-0.11183107644319534,-0.043875571340322495
0.43706363925989716,0.36803631679564713,0.12156360192000865,-0.019776616245508194,-0.07635990530252457,0.010872893035411835
0.46847960847131903,0.2211806719046086,-0.0936982743948698,0.0022651669569313526,0.002581791952252388,0.01606811210513115
0.5265401677738875,0.0705873017899692,-0.2219482222110033,0.017540674656629562,0.10525429993867874,-0.003343673888593912
0.6590018150009215,-0.3203154382649809,-0.1549585065215826,0.010775979608297348,0.044139813631772995,0.024623245000839233
0.4506204919800162,-0.1950702982880175,-0.04232172290086746,-0.021797265857458115,-0.06669807434082031,0.05263182148337364
0.34992183730378745,0.14576609608866273,0.1406757141470909,-0.032694119960069656,-0.08645473420619965,0.05055961385369301
0.1406178008142393,0.3146279306804761,0.22209376816153525,-0.035739462822675705,-0.06617733836174011,0.007906891405582428
0.04838778147418052,0.4101036996092647,0.01277180328965187,-0.041160061955451965,-0.09547903388738632,-0.015043165534734726
0.123592723994283,0.2429786622148007,0.007575988212227821,-0.02295507676899433,-0.08475057035684586,0.009058701805770397
0.13986920180348678,0.20262043967293575,-0.12349953841865062,-0.004982201848179102,-0.021425923332571983,0.037419769912958145
0.07472768039717338,0.24080970241157337,-0.16344693340361116,0.012153927236795425,0.046788204461336136,0.04391342028975487
0.002500246717361733,0.3356843453757465,-0.16525252152085304,0.015109503641724586,0.059304527938365936,0.024281397461891174
0.03763141879332252,0.2492367362288758,-0.04797346505224705,0.02006242237985134,0.07887542247772217,0.010160950012505054
0.17947317191194742,0.2711630290938541,-0.019724106645584105,0.017687948420643806,0.06457851082086563,0.03505644574761391
0.24030275753643363,0.21791686606938018,0.049666824966669076,0.0012800723779946566,0.017781473696231842,0.05062292888760567
0.16554914811355992,0.09540016467561944,0.1172913314282894,-0.03901621699333191,-0.04934856295585632,0.03733348846435547
-0.031278533502109344,0.12760613348726182,0.17671031960248945,-0.030337365344166756,-0.10986974835395813,0.02677016891539097
-0.0021479352815076706,0.13331956096431238,-0.009723521634936332,-0.017936620861291885,-0.05379049852490425,0.022642003372311592
-0.04871391728916205,0.1413721537123434,-0.2030640735208988,-0.003961053676903248,0.01773500069975853,0.017133835703134537
-0.1971206184139475,0.3365156451007351,-0.21581366497874258,0.043619781732559204,0.11796093732118607,0.015245123766362667
-0.3635636283610016,0.7450750744100659,-0.19806641136407852,0.06210775300860405,0.1956736296415329,0.0003401204012334347
-0.47681032404098656,0.8512000649839639,-0.09117956957221031,0.03070642426609993,0.14244157075881958,-0.024717561900615692
-0.4647830189757049,0.9414037021961063,0.19799159256219862,0.017160627990961075,0.035758111625909805,-0.010293378494679928
-0.22532880456000565,0.7308435007661581,0.24318331794142722,-0.017377907410264015,-0.09645026177167892,-0.006980672478675842
-0.10482541575003415,0.6641453884344548,0.32573475989997386,-0.09332991391420364,-0.27133506536483765,0.005464083049446344
0.1251371586909983,0.1963122063742019,0.34126199937760826,-0.11446928232908249,-0.3861023783683777,0.030654923990368843
0.24725829402906818,0.16104270353978498,0.1338748019605875,-0.09113241732120514,-0.293883740901947,0.03446713089942932
0.34447935398891566,0.20836254525519907,-0.3924216932505369,0.018535759299993515,-0.006421866361051798,0.02572743408381939
0.36260344155933705,0.25717067103330044,-0.6958604501903056,0.038456469774246216,0.11512081325054169,0.011094160377979279
0.29578382173981516,0.26107878438774496,-0.2491612233072519,0.008898311294615269,0.1740243285894394,0.020807242020964622
0.09959505908219143,0.3944630994176492,0.22709610649347303,0.02731596678495407,0.13843823969364166,0.043792974203825
-0.15380860583409667,0.6597642507407814,0.08925298542380332,-0.006139195524156094,0.0020303302444517612,0.052032262086868286
-0.33985629729814826,1.0463393368549645,0.2081973447561264,-0.029179688543081284,-0.13966546952724457,0.04931223392486572
-0.3059872723788023,1.160703967181593,0.32040625835359093,-0.06875239312648773,-0.2280360758304596,0.05734698846936226
-0.18024453987693412,0.9125579122662544,0.11127718570530414,-0.06504328548908234,-0.14965254068374634,0.05995825678110123
-0.08038712179781869,0.40209005063213404,-0.23456220459043978,0.02591591514647007,0.0068507748655974865,0.040624506771564484
-0.1298035248005297,0.24854541123015805,-0.5164566537201404,-0.01247037760913372,0.06753472983837128,-0.020642533898353577
-0.2328952029599808,0.13904584792293606,0.12352058120667933,-0.0346345379948616,-0.04746854677796364,-0.06968064606189728
-0.16620271665146574,-0.08095233619883656,0.17917349484562872,0.02752392366528511,0.007872406393289566,-0.09554214775562286
-0.10961347201047465,0.01177395135872066,-0.2554004099577665,-0.03484358265995979,-0.06201213598251343,-0.12731313705444336
-0.17314464474385602,0.2858675905443728,0.1213788930028677,-0.001533383852802217,-0.02244201861321926,-0.15449059009552002
-0.10340828809426166,0.6316205446656793,-0.054774377238750456,-0.003446332411840558,-0.04998230189085007,-0.16676190495491028
-0.003569603256724076,0.5623037742681801,-0.057338090246915815,0.04120006412267685,-0.034305471926927567,-0.14275901019573212
0.002554255626653321,0.5503490595150738,-0.07094926697015762,0.009471699595451355,0.030253548175096512,-0.08794530481100082
-0.15470752743519842,0.5141022726137191,0.014626491245627402,0.00972085352987051,-0.0638330727815628,-0.05216174200177193
-0.3471091910358518,0.06036081733526662,-0.06615911008417606,-0.0011967751197516918,0.061331767588853836,-0.05128476396203041
-0.6156430041372776,-0.08853701917417348,-0.00409691392481327,-0.027907120063900948,-0.04893144220113754,-0.1042853444814682
-0.819375843765214,-0.19670359857827424,0.014441782328486441,0.024200022220611572,-0.01401553861796856,-0.19413639605045319
-0.8256654454287141,-0.2826919927155599,-0.1614063674867153,-0.007760284934192896,0.04990927502512932,-0.3043668270111084
-0.5857334574334323,-0.11738721128450706,0.0740875649958849,-0.019214540719985962,0.010811938904225826,-0.37573739886283875
-0.05823909420724958,0.0733444184783846,-0.08828326360881328,-0.015765337273478508,0.016247931867837906,-0.3422080874443054
0.40845680918507277,0.2470928743342869,-0.02201835506260395,-0.0007182146655395627,-0.0665406733751297,-0.2640971839427948
0.7322085055090487,-0.03868312893649563,-0.035785014608502384,-0.0019227624870836735,0.01619788445532322,-0.16502441465854645
0.9759048875391483,-0.2388417085405439,-0.14367664952874182,0.010830467566847801,-0.036481909453868866,-0.06139549985527992
0.9539916733514517,-0.30674521460663523,0.12655658790171145,-0.00431279931217432,0.029411086812615395,0.0012558992020785809
0.7763050560627133,-0.08667781943986191,-0.12798048322498798,-0.017946619540452957,0.0008229967206716537,0.0026444843970239162
0.319652480844222,0.079079619395826,-0.08847323322296143,-0.010880453512072563,0.001324470154941082,-0.02926497906446457
-0.08450688687525688,0.1739363796434365,0.050098786643147465,-0.007674400694668293,-0.0402003675699234,-0.08372959494590759
-0.27279927025986833,0.10326808503912761,-0.0712725075751543,0.019245896488428116,0.023074207827448845,-0.13434164226055145
-0.3288305339582264,-0.09203372044982389,-0.026086627414822577,0.034576527774333954,-0.06447380036115646,-0.1520230621099472
-0.19968445928627623,-0.23190979038551449,-0.09928104296326637,-0.016381727531552315,-0.00030759861692786217,-0.13088048994541168
0.05334519838558044,-0.23285726383607833,-0.028539281263947485,0.0221946369856596,-0.0008548595942556858,-0.09963850677013397
0.14280717321783304,-0.02309608556302264,-0.06821312000453472,0.011475148610770702,-0.022371869534254074,-0.07303619384765625
0.15473890895415096,0.10428623083941638,-0.04935761288702488,-0.004531350918114185,0.05875583738088608,-0.07228857278823853
0.05766607095911167,0.06844473680332303,-0.03393675639331341,0.018659988418221474,0.025683904066681862,-0.08170178532600403
-0.04955456023123115,-0.0913199644235894,0.018882395124435424,-0.010564755648374557,0.0019986149854958057,-0.08745785802602768
-0.08863748387396335,-0.08554465069146826,-0.11910510285198687,-0.00829307921230793,-0.056569091975688934,-0.09326966851949692
-0.1400853196390439,-0.33088220579102634,0.003592471534013748,-0.015907034277915955,0.022660374641418457,-0.12843729555606842
-0.1254226976341102,-0.17803877346096558,-0.020095862567424773,-0.02593463659286499,-0.047086216509342194,-0.14316511154174805
-0.08004584321263246,-0.11045392315629869,-0.09044073390364646,-0.05035032704472542,0.04118596762418747,-0.11838752776384354
0.09915818376857786,-0.0696441391883418,0.06694938367903232,-0.011456724256277084,0.006164068356156349,-0.0819256603717804
0.24696996034067123,-0.1227861477185972,-0.04352817608118057,0.011673053726553917,-0.016155432909727097,-0.03318583592772484
0.1965592399378307,-0.17063598639117553,-0.11400924101769923,-0.016021158546209335,-0.04754531383514404,-0.0001642364077270031
0.1737454784475267,-0.2271457177888602,0.013456862944364547,-0.0025092377327382565,-0.016944115981459618,0.029008114710450172
0.06808322828086093,-0.16191177799189463,-0.002420505145192146,-0.00398862361907959,0.026878731325268745,0.043704766780138016
-0.06595991141737904,-0.25093027880638835,-0.04743921204507351,-0.015194106847047806,-0.023786218836903572,0.030216798186302185
-0.2953204237454571,-0.49522177718542515,-0.08035071704387664,-0.00018905824981629848,0.017003821209073067,-0.03207587078213692
-0.5637618275893852,-0.4958457908352837,-0.0062777650952339165,-0.0020715065766125917,0.019784394651651382,-0.09894975274801254
-0.7069265455406158,-0.4859024524372071,-0.03350713280439377,0.01797410659492016,-0.031529657542705536,-0.145602747797966
-0.6305569340221584,-0.283754635244701,-0.07553484119474888,0.006332892458885908,0.009548023343086243,-0.1643664538860321
-0.4112092862309888,-0.28719984379513186,-0.09080839817225933,0.0330854132771492,-0.014678485691547394,-0.15310049057006836
-0.25008599173566326,-0.1951547982336953,0.035327918490767475,-0.012806222774088383,0.00821986235678196,-0.1165676936507225
-0.025341396254801654,-0.2187767525680363,-0.19017302776575087,0.014118336141109467,-0.015554709360003471,-0.07213817536830902
0.11758227719888091,-0.3132803519964218,0.09278466668128967,0.011818083003163338,0.006443524733185768,-0.03903638944029808
0.051550556354038414,-0.43586058361306784,-0.14419862757623195,-0.008030455559492111,0.010555978864431381,-0.013732897117733955
-0.09685606257235631,-0.6021678383512422,0.012615735945105552,0.0014060726389288902,0.011709056794643402,-0.01612442173063755
-0.2787853041332215,-0.5310635634824633,-0.014765607455372809,-0.020454751327633858,0.005221595522016287,-0.0665750801563263
-0.6163142544623464,-0.47329895491916685,-0.18607845192849634,0.010275052860379219,-0.04937981069087982,-0.1395585834980011
-0.8729888490743934,-0.5737202904913574,0.025485154390335083,-0.018387485295534134,-0.028094764798879623,-0.2078058272600174
-0.8306932835280895,-0.6709076491110026,-0.09122457775771617,-0.0013671095948666334,-0.004028217401355505,-0.22973975539207458
-0.6359506828244775,-0.6847787188794463,-0.055908934226632116,-0.0018560660537332296,0.012856223620474339,-0.22480304539203644
-0.36532201633565126,-0.7793785452239215,-0.09316402138769626,-0.006968422792851925,0.012581218034029007,-0.2258642017841339
-0.21165371402138844,-0.731873501401022,0.0016845920860767364,-0.0030138944275677204,0.004919304046779871,-0.20859333872795105
-0.06657122541586868,-0.6515092672884464,-0.06533902587294578,-0.0086711086332798,0.017306698486208916,-0.166056826710701
0.15827771407216787,-0.49174328741990025,-0.04828150808811187,-0.0028052297420799732,-0.01607416197657585,-0.12293413281440735
0.2730681685954332,-0.3337269276976585,-0.046806174838542935,-6.294157356023788e-05,-0.02221263200044632,-0.08605601638555527
0.23757947005238383,-0.1470049719675444,-0.03706453302502632,-0.008607161231338978,0.050269294530153275,-0.08263997733592987
0.15867922581145538,-0.0049813138102181255,-0.05083236161470413,-0.002394800540059805,-0.026927243918180466,-0.09152840077877045
0.01913340389357181,-0.02915512987365946,-0.024652795219421385,0.009063449688255787,-0.03344080597162247,-0.0885416641831398
0.00893364190736902,-0.03733721248656511,-0.03497311370372772,-0.006552934180945158,0.01661546900868416,-0.07674647867679596
0.05270193204598035,-0.28696468333238734,-0.029877251869440076,0.010861741378903389,0.0005534114316105843,-0.0730486810207367
-0.043728557491488754,-0.35499979815520344,-0.058121349579095836,0.03983905166387558,-0.12826043367385864,-0.062208473682403564
-0.054845698042446746,-0.39883225441258396,-0.10427461346685886,0.014658850617706776,-0.058909788727760315,-0.06327924877405167
0.08429255913798697,-0.3671287734966725,-0.17138240257799625,-0.0001283511519432068,-0.0006065336056053638,-0.07753009349107742
-0.019316904951026663,-0.29052464083628726,0.13389876735806464,-0.02566978521645069,0.01885153353214264,-0.10887538641691208
-0.05040982535369694,-0.1959171061093919,-0.021580548167228698,-0.04292067885398865,0.07000739872455597,-0.10404308140277863
-0.028803256829222662,-0.23555751750441267,0.06321078167259693,-0.03857865929603577,0.10649057477712631,-0.07630572468042374
0.5062997821692377,-0.2666233946365304,-0.07448153274953365,-0.02367454580962658,0.07419228553771973,-0.036405447870492935
0.5237062960548327,-0.28929540956858546,-0.19015607663094997,0.006663513369858265,-0.012730595655739307,0.014418359845876694
0.3667573829010129,-0.2358460155895911,-0.10800503216683864,8.15102830529213e-05,-0.026299135759472847,0.07083449512720108
0.18977653926145285,-0.09127292867777868,0.0354793096601963,-0.012936225160956383,0.019249441102147102,0.08050984889268875
-0.03230426210394362,-0.17637896875627337,-0.05967500876188278,0.00495276041328907,-0.03630915656685829,0.05509264022111893
-0.15872171324631199,-0.16106553642610086,-0.10092588756084442,0.025002796202898026,-0.06145482510328293,0.00985753908753395
-0.2605108665729873,-0.16416096342448144,-0.1427460906803608,0.029566388577222824,-0.09779738634824753,-0.018516313284635544
-0.040096114706690424,-0.3574459491983056,-0.049182256320118904,0.014658650383353233,-0.050173040479421616,-0.01793469861149788
0.08788802634668536,-0.48282706357985733,0.04346446319520473,0.0016794688999652863,-0.007812002673745155,-0.006220518611371517
0.001275961052835919,-0.5252636084994301,0.017584172007441518,-0.0002846565330401063,0.006942888256162405,0.0008586784824728966
-0.20764172016736118,-0.7909562433581799,-0.11601941179633139,0.018781179562211037,-0.05566296726465225,-0.023564640432596207
-0.37455589129012073,-0.903610708766058,-0.1610106461673975,0.03114035539329052,-0.08880430459976196,-0.059363603591918945
-0.34495245139338077,-0.6635349283859133,-0.046641339665651316,0.037726350128650665,-0.09813815355300903,-0.07952799648046494
-0.021483522100117988,-0.6800095317162573,-0.11124036082625388,0.052267104387283325,-0.15542232990264893,-0.11546199768781662
0.20732728392332792,-0.6348539005637168,-0.16177461627721784,0.031920552253723145,-0.11518009752035141,-0.12147728353738785
0.567470801642537,-0.7618296637255698,0.07360942609012126,-0.0059084538370370865,0.002188613172620535,-0.08480829000473022
0.8114948812570423,-0.8772224680561572,0.1653273403227329,-0.02771308645606041,0.09849704056978226,-0.014059551060199738
1.0908027479596436,-0.8749496277533471,-0.002429272973537445,-0.029807396233081818,0.10085340589284897,0.07516592741012573
1.025238900354877,-0.8440716013435274,-0.11544307321310043,-0.03988506272435188,0.10368407517671585,0.15004096925258636
0.5580704475473612,-0.821883296541497,-0.055768064451217646,-0.016067614778876305,0.03918870911002159,0.17932827770709991
-0.03596659085364081,-0.8654983471885322,-0.17741525300145147,0.013346733525395393,-0.06509508937597275,0.15308628976345062
-0.6428527903631329,-0.784846236045286,-0.23393384355902672,0.0388408862054348,-0.14224541187286377,0.09278571605682373
-0.8955017096556722,-0.5827120272530243,-0.18660101449787617,0.04528786614537239,-0.1499403566122055,0.027837878093123436
-0.8069623523939401,-0.5091128668285906,-0.055333764687180514,0.04158660024404526,-0.10516620427370071,-0.04567350819706917
-0.6695801998995244,-0.7019458345185965,0.055551206830143925,0.00503151910379529,-0.030860818922519684,-0.125944122672081
-0.4568507646717131,-0.8105766704335808,0.09415478599071501,-0.03090684860944748,0.09116708487272263,-0.16278094053268433
-0.06111809740939643,-0.787786892607063,0.18406945019364357,-0.04445168748497963,0.18553701043128967,-0.18159882724285126
-0.06408086990485899,-0.6392809232257306,0.020185878938436506,-0.05571160838007927,0.2388639897108078,-0.14861136674880981
0.11913685883027501,-0.5123201384373008,-0.016876315999031066,-0.05907305330038071,0.17180080711841583,-0.07275602966547012
0.4334939275469631,-0.12538937075324355,-0.14565700969099998,-0.036479402333498,0.07882636040449142,-0.0025005985517054796
0.23449191583320497,-0.10915378207685425,-0.1929594436138868,0.00507709477096796,-0.03500593453645706,0.030140968039631844
-0.10382702496298588,-0.19041646286649627,-0.25079963816404344,0.03518947586417198,-0.10011337697505951,0.020913714542984962
-0.19896743359072133,-0.2069305944896303,-0.16241642131209372,0.022992732003331184,-0.11801674216985703,0.014517601579427719
-0.10395596683858893,-0.26310137625653296,0.09917582902312279,0.0008945646695792675,-0.02535553276538849,-0.005445396061986685
-0.1106727535387501,-0.5639762375250459,0.04082943851649761,-0.0010133240139111876,0.029671235010027885,-0.036994002759456635
-0.04081966604115441,-0.7214051527481525,-0.012005495092272759,-0.03297945857048035,0.10637561231851578,-0.04594681039452553
0.21678280227184293,-0.7294654904112219,0.0854980168044567,-0.044282447546720505,0.06311442703008652,-0.03460334241390228
0.3784526064677164,-0.8340464664135128,-0.08003507522344588,-0.004414149560034275,0.039157263934612274,0.023787846788764
0.34192280137389897,-0.7199320845209062,-0.23651918387711046,0.01682056486606598,-0.06968559324741364,0.0667470246553421
0.0963687083136756,-0.5603612618982792,-0.1202104337453842,0.013569804839789867,-0.07819025218486786,0.06036825478076935
-0.16089224395211785,-0.43625422257315366,-0.07824234658777714,0.03396802023053169,-0.09343525022268295,0.01158047467470169
-0.23891568709220737,-0.1773805652805604,-0.19818740739524363,0.05262770503759384,-0.18666471540927887,-0.034281887114048004
-0.047224162788596,-0.11496281541548668,-0.03488075924515724,0.008591939695179462,0.010977515950798988,-0.011773308739066124
0.22185747518762944,-0.21608627137504516,-0.019289806881546974,-0.028026258572936058,0.08859401941299438,0.038102105259895325
0.3879044350218028,-0.08509427657546476,0.32832652995884415,-0.040293335914611816,0.09795646369457245,0.09510684758424759
0.4366657625161111,0.01278740271758288,0.04326631027460098,-0.008139392361044884,0.039617788046598434,0.1186840832233429
0.2043447609812021,0.05602952839899808,-0.0958902314811945,0.030998410657048225,-0.08555284887552261,0.08124756813049316
-0.10495559060149826,0.02770133260246366,-0.1491582958102226,0.0036370924208313227,-0.011901798658072948,0.026097500696778297
-0.34827392396628853,-0.1444383728825487,-0.1809919424444437,-0.011516962200403214,0.05396697297692299,-0.05277635157108307
-0.39158118730578567,-0.24345798843065275,0.0696650723785162,-0.03831235691905022,0.11202575266361237,-0.09202069044113159
-0.21832393076661974,-0.3055901445536874,0.11451602149605751,-0.046431224793195724,0.15585477650165558,-0.09873274713754654
0.06530408242372795,-0.37482119116280227,0.05864917284548282,-0.06996583938598633,0.20491287112236023,-0.0608343705534935
0.23893101252550258,-0.25621092262305317,-0.08240648052990436,-0.013736950233578682,0.09548953920602798,-0.013064136728644371
0.4542989978296682,0.023452826578821986,0.19289923785924912,0.0018169749528169632,0.005261112004518509,0.038246989250183105
0.378540869273059,0.2292985119085759,-0.5093307473629712,-0.006325915455818176,0.008028445765376091,0.05568453297019005
0.1394747773921117,0.15134775041220708,0.03338847486078739,0.009347586892545223,-0.03091416135430336,0.00429244851693511
-0.1992774311216548,0.11854304852243512,-0.04022562740445137,-0.0012832332868129015,-0.01780814677476883,-0.05194331333041191
-0.5445085167933255,0.0363711074007675,-0.0767190825432539,-0.0002991951769217849,0.014948468655347824,-0.12119029462337494
-0.5891606188705191,-0.15953045407962052,-0.05813537810444831,0.0016505182720720768,0.0396747887134552,-0.16613121330738068
-0.36968956389538943,-0.34034565171767023,0.02161445043683052,0.011965740472078323,-0.02255130186676979,-0.16771499812602997
0.08904147983128205,-0.251021993944142,-0.1140980883449316,0.011042856611311436,0.03623516112565994,-0.1089504286646843
0.5592926097534596,-0.21261591011704875,0.006489946541190147,-0.0016172784380614758,0.004169370513409376,-0.02556711807847023
0.818855619283393,-0.03932197482930496,-0.07188742460310459,0.008433734066784382,0.022129563614726067,0.06090310588479042
0.7545363649122416,0.030493922463059424,-0.008448679393529892,0.005418236367404461,-0.019344640895724297,0.10000283271074295
0.3425852838706225,0.0680769446705468,-0.015312719944119452,0.02682296559214592,-0.044917505234479904,0.08870206773281097
-0.14653297054162248,0.040629787758551535,-0.055682724255323404,-0.01842041127383709,0.05922194942831993,0.038454607129096985
-0.5639730957198887,-0.03578379076579585,-0.12121230426430701,0.02976645715534687,-0.08288821578025818,-0.07647058367729187
-0.6974503497302532,0.008797255369182676,0.15863631825149058,0.031294576823711395,-0.06049928814172745,-0.17519529163837433
-0.7491138284068555,-0.18158789904359726,-0.22358722158968447,0.013213282451033592,0.04146770387887955,-0.1998090296983719
-0.309039426491037,-0.32060075801238413,-0.03156476656496525,0.013544579967856407,-0.0158616304397583,-0.14832426607608795
0.46128878365177656,-0.11904911661474034,0.062414078336954115,0.041222162544727325,-0.09537011384963989,-0.09438379108905792
0.8345312542557716,0.08364157528281212,-0.04812485622167587,0.052356570959091187,-0.1332823485136032,-0.06442509591579437
0.6082209278451278,-0.09978747638175263,-0.22025018612146377,0.04790555313229561,-0.07901187986135483,-0.012546058744192123
0.6162601131223142,-0.09043993018604815,-0.042994507595896715,0.017178267240524292,-0.02233821526169777,0.060141194611787796
0.8179497564848512,0.2937279486559331,0.0010603227078914642,0.016055578365921974,-0.06902303546667099,0.12474904209375381
0.7660762152541428,0.5105066592745483,0.09113748399615287,0.0006310830358415842,-0.06369031965732574,0.14793691039085388
0.40202253835387525,0.38416035312265157,0.017400047612190245,0.00792764127254486,0.00752701610326767,0.1135401576757431
-0.11008498024605214,0.07792849486563354,-0.08433014206886291,0.039119645953178406,-0.11503032594919205,0.07114103436470032
-0.3405813967023045,-0.0027182277164421974,0.0713338823735714,0.05453557148575783,-0.14406415820121765,0.0590161457657814
-0.21201927766446024,0.14769346568835898,-0.20668635567128657,0.02475716918706894,-0.08146548271179199,0.05869629979133606
-0.031184503109683282,0.09835411911038681,-0.050309214523434634,0.013385064899921417,0.033835310488939285,0.03727680444717407
-0.0037923780202865597,0.21394356025792657,0.061330374753475185,-0.02077237144112587,0.03278975188732147,0.008767398074269295
-0.10086978259258902,0.23311335748899728,0.17689502851963043,-0.03607579320669174,0.11654441058635712,-0.006211488042026758
-0.13096790153793988,0.3119141782097518,0.03354220411777496,-0.019262991845607758,0.07602601498365402,0.008252406492829323
0.044782377393357456,0.020452859311550855,0.14890812044143675,0.015253576450049877,-0.0001161680556833744,0.03248671442270279
0.20262336228238417,0.10332292049890383,-0.2431272038400173,0.07521038502454758,-0.07112669944763184,0.03151066601276398
0.13181069077132268,0.14691186859030275,-0.18950667281150818,-0.030645379796624184,-0.06558101624250412,0.005238634534180164
-0.12794530231375245,0.16671831975709647,-0.34466216320991516,0.014623032882809639,-0.042568109929561615,-0.030792072415351868
-0.2508690501384437,-0.013549107805080712,0.5257493827223777,-0.0021907927002757788,0.04554478079080582,-0.07475604116916656
-0.11390327815888449,0.32443668291345235,-0.3135457249343395,-0.025748582556843758,0.05115872621536255,-0.08918026089668274
0.044726578385778704,0.06559561271620915,0.19221710081398485,-0.02854825370013714,0.15452036261558533,-0.07678259164094925
0.1611059232354164,0.061715702542942015,-0.053496027866005894,-0.06385937333106995,0.21348248422145844,-0.0763024240732193
0.05124765528417192,-0.1164785172080621,-0.06748889738321304,0.01849755272269249,0.04527163505554199,-0.08966696262359619
0.040891425236267966,-0.2722368140715174,-0.41879765900075433,0.05173593387007713,-0.12134397774934769,-0.08513852208852768
0.12877797201192007,-0.5909335468271747,-0.16394494605362414,0.004269881173968315,-0.041597746312618256,-0.08860702067613602
0.40986813728772103,-0.6091767672652378,-0.00170621939599514,0.03455451875925064,0.08997879922389984,-0.06641702353954315
0.7451770734798163,-0.37676797784902155,-0.00020224457383155822,-0.05240514501929283,0.1696576476097107,-0.024425365030765533
0.855758897332102,-0.06271894303504377,0.3244815449684858,-0.04330075904726982,0.13113513588905334,0.04060445725917816
0.7692023844506591,0.21173203995460643,0.010042086064815521,-0.005223684012889862,0.04008166119456291,0.10712756216526031
0.3697795072011649,0.16321608378980307,-0.14470774614214896,-0.008782004937529564,-0.07971850782632828,0.145827054977417
0.34133276305887844,0.0314024521427229,-0.12330547715127467,-0.043743714690208435,0.009620696306228638,0.16668573021888733
0.3238649474401027,0.37780305651780216,0.13151976326704024,-0.026375798508524895,0.01679162122309208,0.17976011335849762
0.28898835291340946,0.27734306943565606,-0.05356909310221672,-0.005184759385883808,-0.037500910460948944,0.1923462152481079
0.13483023952189832,0.04079833099218085,-0.06959200714230537,-0.011889497749507427,0.024402234703302383,0.20403867959976196
-0.02637092653220752,0.18564418869707733,0.12220014625787734,-0.021294983103871346,0.06167823076248169,0.19867214560508728
-0.2631200444243848,0.34130916298758235,-0.0020499182671308517,-0.025687210261821747,0.07980667054653168,0.17325498163700104
-0.67934712228477,0.4361000183921307,-0.0003407762616872787,-0.03937958553433418,0.08701744675636292,0.1174929216504097
-0.9092512719362974,0.5334890370637179,0.03533668631911278,0.012582410126924515,0.013182388618588448,0.04089865833520889
-1.0046887912139295,0.6818446381889284,-0.28350597597956656,0.038998037576675415,-0.008189479820430279,-0.0003374633379280567
-0.6761991796478629,0.5241655841296539,-0.09852525615990161,-0.01874110847711563,0.02943972498178482,-0.020064929500222206
-0.4256195774426684,0.34758137512486426,0.3186041773676872,0.01694684848189354,-0.012012910097837448,-0.049651581794023514
-0.37822427760455757,0.31104028145205226,-0.26303075870573517,-0.005727083422243595,0.009250210598111153,-0.0422847643494606
-0.0999119886774104,0.41423919197879727,0.044480362239480015,-0.009857379831373692,0.004584351554512978,-0.01699032448232174
0.013798352733749197,0.5112639439152553,-0.07636193966865538,0.04615573212504387,-0.12984499335289001,-0.0061286818236112595
0.02955215266749728,0.7425587807402014,0.012224690800905227,-0.002601953921839595,0.043446630239486694,0.0637555867433548
0.04986855808384716,0.30084830205515023,0.15118366415798662,-0.021592753008008003,0.05988818034529686,0.07289521396160126
-0.4039817461302504,-0.12410523096052929,-0.049694297495484346,-0.0076761385425925255,0.04202582687139511,0.025156984105706215
-0.656848071033135,0.02547002988643944,-0.13843816435337067,0.00558233167976141,0.011940661817789078,-0.053779516369104385
-0.6983165381055325,0.29323883169842885,-0.07306465168893336,0.00811526458710432,0.006661478895694017,-0.10481926798820496
-0.5775629739267751,0.5584652920838445,0.09124211341440677,0.011036048643290997,0.025898974388837814,-0.1125938817858696
-0.47496849556658416,0.3535002072472125,-0.028774259063601492,-0.0033649951219558716,0.017952632158994675,-0.129700168967247
-0.3362494684452191,0.22641402424713594,0.0012853636354207992,-0.009927134960889816,0.031039316207170486,-0.12612473964691162
-0.128218237503618,0.16354049343857913,-0.033003859457373615,0.002048035152256489,0.009082084521651268,-0.11018411815166473
0.038620772323966955,0.38745062683969733,-0.021039865419268607,-0.0008162141311913729,0.012676900252699852,-0.08943815529346466
0.10635826047365553,0.424656321901083,-0.07998422181904316,-0.0035073384642601013,-0.02494344674050808,-0.08235441893339157
0.1886067465634085,0.30002916769199073,0.1167991639971733,0.02269669435918331,0.011315788142383099,-0.050073135644197464
0.3315400851778686,0.24064618241293353,-0.10045242483019828,0.014345021918416023,-0.00073954276740551,-0.010544102638959885
0.20854741856912148,0.20144604386501014,-0.04059153810739517,0.003080402035266161,0.0074096485041081905,0.023844564333558083
0.06439545227936469,0.4847051324114203,-0.00916764131784439,-0.004641433246433735,0.01813925988972187,0.0529707595705986
-0.20705126172723248,0.37828634652271864,0.027183775001764297,-0.01099664531648159,-0.00432086456567049,0.05790174379944801
-0.42400878124516456,0.36526604836471377,0.000685059654712677,0.0057381270453333855,-0.006521168630570173,0.00604972941800952
-0.6242017197765409,0.1763648671656847,-0.04645663074851036,-0.00016201124526560307,-0.005406753160059452,-0.04566359147429466
-0.45886765745207664,0.14339622515216469,-0.02505786888897419,-0.006455060560256243,0.010108291171491146,-0.07673229277133942
-0.37194388216082,0.22720468143448233,-0.044209728604555125,0.010906899347901344,-0.0005031353794038296,-0.09191931784152985
-0.3037363151142374,0.304196096379403,-0.010102876341342925,0.011886943131685257,-0.005148753523826599,-0.09983956068754196
-0.21376188354808837,0.5225986270738765,0.007707505637407302,-0.007312205620110035,0.011520063504576683,-0.08767491579055786
0.0008052656680112704,0.39492395839504896,-0.022970541220903397,-0.000819419277831912,-0.010075243189930916,-0.04938371852040291
0.16845199341559783,0.32855204581040887,-0.027006080347299573,0.013086430728435516,-0.010366152040660381,0.01606706902384758
0.26470515819136053,0.33942696597017347,0.015050854137539862,0.013150880113244057,-0.03381075710058212,0.032887592911720276
0.047869456688500935,0.3155413191983476,-0.019660393759608267,0.0030721933580935,-0.016629280522465706,0.039354030042886734
-0.13061403746581635,0.06318643268262968,-0.00454699577987194,-0.005675758235156536,-0.01310724951326847,-0.012507837265729904
-0.4615852823803201,-0.017851609038282184,-0.06321253523826599,-0.0017519363900646567,0.00035081803798675537,-0.13824579119682312
-0.7021038015592843,0.04386462322762236,-0.005316811108589172,8.234591223299503e-05,-0.013451147824525833,-0.1360732614994049
-0.4122311400920152,0.2925222991932183,-0.02986439238786697,0.009779714047908783,-0.0005705035291612148,-0.1374269425868988
-0.32943836365826423,0.30683486565146595,-0.015794950503110885,0.0024722476955503225,-0.002816797699779272,-0.15506966412067413
-0.27187641979390753,0.3045001025609672,-0.0008323591709136962,-0.0022846905048936605,0.001629615668207407,-0.16698677837848663
-0.20344143719961866,0.36470885287337,-0.011012976923584937,0.0013700095005333424,0.0018187868408858776,-0.13546958565711975
0.04854504982854705,0.25696939457384865,-0.021487024664878843,0.0042073410004377365,0.007820220664143562,-0.09893740713596344
0.16070114182680845,0.3895958221748471,-0.007269698742032051,0.0034519131295382977,-0.005311205983161926,-0.07925012707710266
0.022359601681749334,0.36640937318094075,-0.025374679753184318,0.0027147498913109303,-0.0050065405666828156,-0.10138285905122757
-0.24272331748055292,0.44503677356354887,-0.002031213566660881,0.02151508443057537,-0.05451183766126633,-0.161614328622818
-0.5967468727484345,0.43063210837505755,-0.028950200152397153,0.04123366251587868,-0.11836910992860794,-0.21869438886642456
-0.7193475626312196,0.38136158924959596,-0.10385083509683608,0.0483098030090332,-0.14987695217132568,-0.26620593667030334
-0.55533349686414,0.33967348807714876,-0.11662439195215701,0.028944896534085274,-0.08722740411758423,-0.27104702591896057
-0.24409886188376692,0.2621291519572027,-0.058358080944418904,-0.003255539108067751,0.026215355843305588,-0.2664194107055664
-0.14134968615220858,0.35320681379120794,0.11733575509190558,-0.02934306487441063,0.10733843594789505,-0.252367228269577
0.22280816350858657,0.3831825941316783,0.16159224544763565,-0.0277071762830019,0.09510450810194016,-0.19262513518333435
0.5037101310022175,0.270554066882655,0.06248129835426807,-0.012882690876722336,0.04195446893572807,-0.13465529680252075
0.7123796233147383,0.4865976681597531,-0.08465279815196991,-0.0018438826082274318,-0.00010485202074050903,-0.09950089454650879
0.4913466527851298,0.4632974931256845,-0.06790332340300083,0.04262664541602135,-0.1380304992198944,-0.08552302420139313
0.45026627171486616,0.4683491504920646,-0.08087678674459457,0.05906409025192261,-0.16688722372055054,-0.09535372257232666
0.2189576620928943,0.40881314834207294,-0.22865093472003936,0.033053793013095856,-0.15659624338150024,-0.14511354267597198
-0.14589843549774958,0.3855723753450438,-0.02436988662481308,0.008985929191112518,-0.044304799288511276,-0.2098238319158554
-0.37647578996941444,0.37940643659383055,0.0673334145605564,-0.011888726614415646,0.04389004036784172,-0.2435477077960968
-0.3019022498211823,0.3144651778668165,0.15006488926112652,-0.02137886919081211,0.052876997739076614,-0.28282031416893005
-0.29789798261588435,0.4271085373587906,0.07867723087370396,-0.011839158833026886,0.0016622808761894703,-0.2964756488800049
-0.29471714235637336,0.5198470268107951,0.012964110991358756,-0.0045969681814312935,-0.029147524386644363,-0.28832587599754333
-0.07601742794676683,0.6398997127112,-0.10767769990861416,-0.01158270612359047,-0.006234217435121536,-0.25860127806663513
0.2790764690995216,0.527636219382286,-0.06445113712251185,0.02308182790875435,-0.1663331836462021,-0.22549036145210266
0.46202699826583266,0.3417548974610865,-0.08258125257492065,0.0803174152970314,-0.30060043931007385,-0.1849392056465149
0.5566862997125834,0.35267128214240073,-0.24588205550611017,0.07552562654018402,-0.262296587228775,-0.14437836408615112
0.5427127194177359,0.866780203692615,-0.1659545323103666,0.03855722025036812,-0.17645969986915588,-0.14438475668430328
0.31022922079749404,1.005173432925716,0.08587620246708393,0.03802400454878807,-0.18095120787620544,-0.14328955113887787
0.23686807038001714,0.4243289896428585,0.11547580643892287,0.01665639691054821,-0.11285923421382904,-0.1532210111618042
0.2699955927496776,0.1664355024940334,-0.03285772898495197,-0.010085360147058964,0.02580607682466507,-0.16833023726940155
0.26078343643667173,0.08355683787511661,0.11790566393435001,-0.04144914075732231,0.16200999915599823,-0.20323388278484344
0.02637828557146713,0.36037224844116716,0.19793021776378153,-0.07832805812358856,0.26768502593040466,-0.2674931287765503
-0.30417090713921935,0.4894821375548839,0.2590519182026386,-0.08874847739934921,0.275920569896698,-0.32001280784606934
-0.5117222821420059,0.341138519128412,0.13235855217874049,-0.07892217487096786,0.20779968798160553,-0.3455967605113983
-0.383239329287596,0.26633727117152883,-0.04322831635177135,0.00979677401483059,-0.011119876056909561,-0.34888869524002075
-0.16256174806691706,0.3466838052306324,-0.1736883414328098,0.07036074250936508,-0.14262446761131287,-0.3263145387172699
0.14484221357624047,0.57003224962838,-0.5902309149831533,0.06212758645415306,-0.13454177975654602,-0.28850749135017395
0.36132874544840304,0.5984826104998588,-0.22808804014027118,-0.004029777832329273,-0.1534857153892517,-0.2612808048725128
0.3820657919961959,0.26177228307724,0.0983341175019741,0.042021073400974274,0.020397402346134186,-0.22107158601284027
0.21644922293592242,-0.017216891331318766,0.5896838024944067,-0.006237078458070755,0.06133684515953064,-0.22629880905151367
0.3338917628705501,-0.16109836098346858,-0.33494097966253755,-0.054378241300582886,0.19919724762439728,-0.23582680523395538
0.15274103140151127,0.22828754476774482,0.18167758662104605,-0.04718984290957451,0.2326231300830841,-0.23854391276836395
0.13206311289612202,0.46288113087713717,0.12597791123092172,-0.06592518091201782,0.11201149970293045,-0.22805771231651306
0.19880656220689416,0.35148963460978117,-0.14857377392053603,-0.039077430963516235,-0.008091299794614315,-0.1894369274377823
0.3228078030699864,0.33658545893393454,-0.08769581910967826,-0.009846311062574387,0.009524712339043617,-0.15669097006320953
0.4140348285131156,0.5011238043034449,-0.07184183189570903,0.0014903496485203505,-0.06714043766260147,-0.15833547711372375
-0.04333506466187537,0.1598400314854458,-0.10197393530905247,0.007609761320054531,-0.04171523451805115,-0.16403304040431976
-0.13505901590962893,-0.16595630414234475,-0.02384264788031578,-0.001250575645826757,0.05581372231245041,-0.22293657064437866
-0.20972616175860165,-0.13260786903100089,0.05055296015143394,-0.06230935454368591,0.0668850988149643,-0.24938146770000458
-0.2476607008174993,0.21500530773792415,0.009701309803128243,-0.006625055801123381,0.008002342656254768,-0.24222342669963837
-0.11716219775644131,0.09574642083002254,0.1672270364642143,0.04006770998239517,-0.11836849898099899,-0.22724321484565735
0.22945344674196094,0.09138656338639557,-0.2960702739983797,0.0354633703827858,-0.13474933803081512,-0.2001226395368576
0.40069070522822436,0.49036757861990476,-0.21054069301187991,0.04552706703543663,-0.13837102055549622,-0.1720442771911621
0.4310767103374004,0.32798224656581876,-0.12259528305530547,0.035029418766498566,-0.1260717511177063,-0.14875733852386475
0.1858910761302337,0.4019688354052603,0.02603811209797859,0.023180609568953514,-0.07600081712007523,-0.14949685335159302
-0.007568480759207159,0.4180685044759884,0.01104863275885582,0.0066205416806042194,-0.0390838198363781,-0.1575412005186081
-0.23628911971459163,0.4096498183619231,0.15556933189630506,-0.03521838039159775,0.016713391989469528,-0.1899816244840622
-0.47627800726257263,0.4819191184220835,0.05546411306858062,-0.003394672181457281,-0.0015303269028663635,-0.23230990767478943
-0.7214305794503539,0.8046850551117211,-0.1466185481995344,0.005997769068926573,-0.188335120677948,-0.29245245456695557
-0.7925234196096658,0.887615048059076,-0.15066460871994494,0.08666225522756577,-0.32030245661735535,-0.3377254009246826
-0.8404768647871911,0.9126425218097866,-0.28933950443863865,0.09665537625551224,-0.4178847074508667,-0.3928302526473999
-0.9559089051496237,0.7524677419446408,-0.20175474448800085,0.0908837765455246,-0.4176889657974243,-0.4915240705013275
-0.6809085263825952,0.583903465527296,0.1413122584849596,0.00513541791588068,-0.042982637882232666,-0.5455742478370667
0.18598503802400082,0.4987948133666068,0.7500263401418924,-0.06508947163820267,0.1617169827222824,-0.4971502721309662
0.8285196658160537,0.8503940823633224,0.2461123571306467,-0.009356414899230003,0.022187214344739914,-0.41230466961860657
0.9577048486556857,1.0463941357821225,-0.5108312150537967,0.05287792906165123,-0.2111554890871048,-0.3244592249393463
0.8395673487268388,1.0093367631502448,-0.3541138821661472,0.04183357581496239,-0.17146547138690948,-0.27934983372688293
0.5583966107618064,0.7823696898639202,0.09311784415841103,0.004400979727506638,-0.06710764020681381,-0.27030149102211
0.16473832492101936,0.6359138579454272,0.24934827031195161,-0.02853306382894516,0.013118451461195946,-0.28794270753860474
-0.24287783218882977,0.47266573504954573,0.06243687469065189,-0.02431461587548256,-0.014433814212679863,-0.32929283380508423
-0.561387755401805,0.27541401933552695,-0.08194587728083133,-0.018480690196156502,-0.03835488110780716,-0.3770673871040344
-0.584797272561863,0.10385629672324284,0.056153848898410796,-0.00042179517913609743,0.008831007406115532,-0.42959263920783997
-0.36756906461007893,0.12522791484752668,0.06980477311015129,-0.010916363447904587,0.1076912060379982,-0.4362436532974243
0.023905045592039823,0.31838845225777473,0.03526128299534321,-0.06397771835327148,0.005938479211181402,-0.4434216618537903
0.21604287062473593,0.2279012123312801,-0.0975672247827053,-0.0050260936841368675,-0.058571092784404755,-0.4128502905368805
0.3861349776638672,0.45963308886662124,-0.25338731656968594,-0.039638400077819824,-0.1268305778503418,-0.3847787082195282
0.5038628738785162,0.4469860810004174,0.09077800303399562,0.008081300184130669,-0.08406440168619156,-0.3354756236076355
0.49525535066146403,0.320344591294229,-0.12012392450571059,-0.005064328201115131,-0.06987480819225311,-0.313064843416214
0.37932869518250223,-0.06815077709173784,0.15471943706870078,-0.025945546105504036,0.05968919023871422,-0.26705875992774963
0.18708598500322549,-0.13993150818366556,0.0890489872843027,-0.09971350431442261,0.08867636322975159,-0.2564000189304352
-0.10624368505012244,-0.19258852794226258,0.2702180398613214,-0.04815605282783508,0.15129077434539795,-0.25840941071510315
-0.1728058229772374,-0.19482125543039291,-0.23762276120483874,-0.06131552904844284,0.07213817536830902,-0.24921537935733795
-0.1636737096305005,-0.22197098203208296,0.009468670091032982,-0.02694418653845787,0.06496819853782654,-0.2503988444805145
-0.12038705068761482,-0.397037370352447,-0.1817109043687582,-0.03923254460096359,-0.011341223493218422,-0.2541344463825226
-0.02091956350784749,-0.5275582953078672,-0.0604103372991085,-0.0030802786350250244,-0.018537836149334908,-0.2677531838417053
0.14265965450592338,-0.7065883996274321,-0.2013958480477333,0.001847368199378252,0.019168796017766,-0.2689047157764435
0.2784492040466517,-0.872682997995615,0.09755202721357345,-0.031778741627931595,0.0995708629488945,-0.26294755935668945
0.42110922387875616,-1.1942223520323634,0.12337912690937518,-0.07104172557592392,0.2220323383808136,-0.23883368074893951
0.43552799065783615,-1.365676358541846,0.18255261588990687,-0.10863710939884186,0.4215846061706543,-0.22107036411762238
0.2430818668609485,-1.3558610669702291,0.14929156680107117,-0.12053637951612473,0.474166601896286,-0.2103482186794281
0.09174830937087536,-1.2856101575277745,-0.05292728806734085,-0.1291581690311432,0.3884333372116089,-0.20198549330234528
0.053117285080952564,-1.081635398902744,-0.16294599814414978,-0.08125749230384827,0.2819678783416748,-0.18334336578845978
0.09044770250055006,-0.8948309707872569,-0.3995972839683294,-0.032752376049757004,0.09060501307249069,-0.16959664225578308
0.12012122109197079,-0.8781902901750057,-0.38135201770365235,-0.007606278173625469,-0.08139470964670181,-0.14907032251358032
0.21838768018521368,-0.8180728714078664,-0.2726128260433674,0.018055764958262444,-0.08845432847738266,-0.12783581018447876
0.2938757596287876,-0.8034404618781059,-0.12019874330759048,0.00318897538818419,-0.00473108422011137,-0.08014433085918427
0.19882201550435274,-0.8697764628991485,0.09480769694149493,-0.026919659227132797,0.09603281319141388,-0.06701388210058212
0.11504064815836026,-0.8905291819401084,-0.004662731114029884,-0.04166786000132561,0.1426890343427658,-0.038517363369464874
0.06760319881211034,-1.076241065578535,0.050752866637706756,-0.04950980469584465,0.16439805924892426,-0.02080281637609005
-0.0630396354899276,-0.9597470220077783,0.08957739507257938,-0.032742831856012344,0.12276975065469742,-0.029177874326705933
-0.2827613864236511,-0.7612297981362789,-0.04760580078363418,0.014405504800379276,-0.018506942316889763,-0.04295387119054794
-0.37019506573211397,-0.5979994300927967,-0.21576865679323673,0.004195976536720991,-0.038322851061820984,-0.05450452119112015
-0.36470154634974894,-0.40787345633916555,-0.28922318458259105,0.020376544445753098,-0.07253408432006836,-0.06886428594589233
-0.3197745363213122,-0.23079205666827038,0.06121405489742755,0.018538590520620346,-0.021028127521276474,-0.07027626782655716
-0.23042850231919437,-0.28565714439777656,-0.1358610073417425,0.0003619829658418894,0.029700830578804016,-0.08532978594303131
-0.26220566952582447,-0.25906660431511697,0.02501987496614456,-0.019344855099916458,0.14557090401649475,-0.07533115148544312
-0.2968777544563636,-0.35569782688934354,0.10734744504094124,-0.03266545757651329,0.15312974154949188,-0.04104374721646309
-0.19995538518214598,-0.5450882894426584,0.08732990840673446,-0.015886500477790833,0.12466596812009811,-0.014935395680367947
-0.11485469713220373,-0.5298911587022245,0.0054489130556583405,0.009488098323345184,0.05539928376674652,-0.007300379686057568
-0.13436983720222487,-0.45869551575556394,-0.19253683428764343,0.010147884488105774,0.017667405307292938,0.0018970044329762459
-0.10561517788823693,-0.5193322456890717,-0.2205138054937124,-0.028666358441114426,0.09502983838319778,0.011600497178733349
0.03309321367468219,-0.654049818616733,-0.08209200775325298,-0.06601659208536148,0.19424673914909363,0.02561052143573761
0.06688378479664679,-0.6803241506233811,0.20349018997848034,-0.06677905470132828,0.18843252956867218,0.03717343136668205
0.13918522899416275,-0.7533134720537811,0.09174129510819912,0.012208105996251106,0.016037818044424057,0.05472879111766815
-0.021664155347051562,-0.7223277474857867,-0.1541869376271963,0.028193995356559753,-0.06786666810512543,0.040862247347831726
