acc_x,acc_y,acc_z,gyrx,gyry,gyrz
-0.1970516082983464,-0.18639782007597386,-0.005114566534757614,0.0786965936422348,0.010570626705884933,0.27022406458854675
-0.23814618229074402,-0.24229743848498908,0.3729629595428705,-0.013508431613445282,0.049326010048389435,0.15527909994125366
-0.4907470063915476,-0.09433501966213807,0.5765384897172451,-0.06488414108753204,-0.062237150967121124,0.10642685741186142
-0.32574082431457935,-0.3303812705315649,0.10225509033799171,-0.003356596454977989,-0.09162592887878418,0.19249382615089417
-0.22817113358015192,-1.0892509884729982,-0.5036404267668724,0.02211694046854973,-0.05901753902435303,0.13909922540187836
-0.6216635796010493,-0.643343569554761,-0.09035071753263473,-0.007814859040081501,0.003195235040038824,-0.010215424932539463
-0.7616075454074889,0.08929059575414285,0.18979601114690303,-0.029132265597581863,0.005027838982641697,-0.08952981233596802
-0.5079814516458661,0.336252902511321,0.06592997750341892,-0.01766948774456978,0.03239288553595543,-0.09779972583055496
-0.10596584535627625,0.15051439572745,-0.12591127573549746,0.02555587887763977,0.0682823583483696,-0.10925645381212234
0.026043685605528298,0.02405743227531202,-0.3121381962239742,0.06772303581237793,0.10544916987419128,-0.15426360070705414
0.016155068502796348,0.30869503350015726,-0.3326479002892971,0.11035265773534775,0.11599846929311752,-0.21688883006572723
-0.16599369527697563,0.8825272964660078,-0.33035189830660816,0.15050406754016876,0.10869768261909485,-0.25773346424102783
0.020804855653573758,0.4784201338578015,-0.302095525637269,0.16475984454154968,0.11048843711614609,-0.23943519592285156
0.04876607673466205,-0.04072871808838099,-0.07259586513340473,0.13647787272930145,0.0798192024230957,-0.253381609916687
-0.16729681376479566,-0.04454823984391987,0.23496494017243383,0.04780711978673935,0.06376568228006363,-0.2864990234375
-0.32831845625024286,-0.2007592306446284,0.6459107166290283,-0.11262543499469757,0.01318265963345766,-0.3694210648536682
-0.43368345876969394,-0.21814534106301142,1.2243658536225557,-0.3178483545780182,-0.0416395477950573,-0.4136822521686554
-0.14679178587459027,-0.2718026421716437,1.351336867544055,-0.47475382685661316,0.01387857086956501,-0.42234790325164795
0.07205689028534107,-0.10176579071739687,0.4548094681024551,-0.41655468940734863,0.3034180998802185,-0.41617658734321594
-0.2156639543097466,-0.051571393646090286,-1.0251520257890223,-0.24569080770015717,0.5256956219673157,-0.4713367819786072
-0.23123530692374333,-0.5084276245107874,-1.2869482742637395,-0.11098185926675797,0.6292321681976318,-0.5088433623313904
0.1292950729548931,-0.7043566219873726,-0.7396686122566462,-0.06424897909164429,0.5900893211364746,-0.47235703468322754
0.15049860450327396,-0.11403425672794691,-0.10705752218365669,-0.061661314219236374,0.5740580558776855,-0.4886462986469269
-0.10123305381387472,0.3072907927254215,-0.03426642673909664,-0.05159589648246765,0.5441188216209412,-0.5275512933731079
-0.3552809897167608,0.172189481177181,0.014964929419755935,-0.09383776038885117,0.3400641977787018,-0.5579059720039368
-0.3029708106344566,-0.11949519814811646,0.6104407593190669,-0.293915718793869,0.20520544052124023,-0.5113115906715393
0.11297014376092701,-0.38699338459149,1.5678408528745174,-0.5907869338989258,0.050830695778131485,-0.4428194761276245
0.583035961977765,-0.5567031047169119,1.9048831887304782,-0.8216753005981445,-0.09818008542060852,-0.3699689507484436
1.2095036539249122,-0.42031062084697185,0.04021159887909889,-0.13353775441646576,-0.6856473684310913,-0.14629177749156952
2.062148218628764,-0.08224204721581191,-2.920973956185579,-0.0644548237323761,-0.537432074546814,0.007223488762974739
0.43788237176425754,-0.016377024707384405,-0.0935065512150526,-0.1622016280889511,-0.4397645592689514,0.07033117860555649
0.1954973828599788,-0.11652021919162943,0.05982990706264972,-0.11980251967906952,-0.3858315646648407,0.0798834040760994
-0.3020857166293077,-0.32904680705741046,-0.3782786016076803,-0.07376231998205185,-0.2404070794582367,0.05323728546500206
-0.3773443894974887,-0.36903343807421624,-0.4026648548454046,-0.07079209387302399,-0.23989363014698029,0.07399316132068634
-0.16960509070716798,-0.12492898669987916,0.08905190989375114,-0.08926951140165329,-0.3251928389072418,0.11377311497926712
-0.023413955873157827,-0.11697963513061403,0.13959668673872946,-0.11127147823572159,-0.36355701088905334,0.19002260267734528
-0.14371827844707294,-0.09805316340243443,0.058037178426980966,-0.10595007985830307,-0.34849196672439575,0.22611117362976074
-0.49631439472772176,-0.40241336430236696,-0.21938334015905855,-0.034078821539878845,-0.18564341962337494,0.1891707330942154
-1.0549448142454028,-0.7800511837884784,-0.4927817636221647,-0.003966061398386955,-0.10465939342975616,0.1082085371017456
-1.0031284830946474,-0.6834012199811637,-0.19548048652410507,-0.01866804249584675,-0.07319920510053635,0.05247284099459648
-0.6941296808749436,-0.515976468987763,-0.04181318885684013,-0.029019614681601524,0.014818152412772179,0.03121018595993519
-0.585086318636313,-0.16865356213599442,-0.08866086474955082,-0.000620463746599853,-0.021869288757443428,-0.015564776957035065
-0.9389246717967092,-0.09471839295653625,-0.06726034932434559,-0.0011941086268052459,0.01061408594250679,-0.0893377959728241
-1.15966044947803,-0.2565737463197671,-0.06952361808121205,0.0009156474843621254,0.00010924693197011948,-0.16323412954807281
-1.1164243882112204,-0.5646401082612573,-0.007875263419747352,0.003785870037972927,-0.006612887606024742,-0.2220708429813385
-0.9419649162754415,-0.8151802917715162,-0.08777765217423439,0.010462415404617786,0.021651506423950195,-0.23343321681022644
-0.5299153432954102,-0.5321841650102287,-0.07669044097065925,-0.006801128387451172,0.022104326635599136,-0.2099194973707199
-0.26375596770774573,-0.15685111533515153,-0.06948679320216178,0.03263203054666519,0.10616035014390945,-0.19326834380626678
-0.3634294075220823,-0.12285398879041895,-0.2014391026675701,0.04107465595006943,0.15171174705028534,-0.19551098346710205
-0.6330225204180926,-0.14311375494897366,-0.1542962432205677,0.04987720027565956,0.18169334530830383,-0.1797085851430893
-1.1389457243598997,-0.2287784518235363,-0.09416589190661907,0.03259008377790451,0.13544298708438873,-0.1841004341840744
-1.6109497806303201,0.05502535632513463,0.06862053176164627,0.01555837132036686,0.06105078011751175,-0.23685099184513092
-1.9267340782716869,-0.22335240818681193,0.17828852870464323,0.009519126266241074,0.03314637765288353,-0.3469812572002411
-1.9191990065917373,-0.48167022169493134,-0.054873745959997174,-0.009150166064500809,0.04344082623720169,-0.4510112702846527
-1.2452147265143692,-0.24748037581453097,-0.07886135526895523,0.005573781207203865,0.032601453363895416,-0.4672958552837372
-0.5235970269940793,-0.2253898505648598,0.08918167375326157,-0.008411277085542679,-0.019698768854141235,-0.41295191645622253
-0.10744452134040183,-0.1665035992941819,-0.013756722673773765,-0.006674096453934908,-0.04321202635765076,-0.3972151577472687
-0.5451379007380456,-0.3260867151428014,0.09257131619155406,-0.07264938950538635,-0.28487205505371094,-0.4267280399799347
-1.178556800062582,-0.6512490089170634,0.44123920791149135,-0.021238524466753006,-0.1250106394290924,-0.4418462812900543
-1.340615420912951,-0.5497978553730994,-0.7003261974275111,0.03194000571966171,0.07903091609477997,-0.5611156821250916
-1.6406453923225401,-0.3938041605848819,-0.40492870812416076,0.02355930581688881,0.11937417834997177,-0.7165185809135437
-1.6042849159136414,-0.44472843826673925,0.005199906730651855,0.008571835234761238,0.11185447126626968,-0.8122403025627136
-1.3890056500725447,-0.7799803105093538,0.0667851330280304,0.03250952437520027,0.14023473858833313,-0.8522053956985474
-0.9050821695581078,-0.8457214143771677,-0.22282968122065067,0.03515457734465599,0.14704203605651855,-0.830413281917572
-0.4643718078263104,-0.3677501202654093,0.009787819042801857,-0.0025164992548525333,0.04890330135822296,-0.8308984637260437
-0.43552269342821087,-0.5303595068663358,0.1988683753967285,0.024199800565838814,0.09377863258123398,-0.81728595495224
-0.1954081336739473,-0.6289120894245803,-0.24922493619322775,0.038168080151081085,0.12881304323673248,-0.7982954978942871
-0.14624097445826045,-0.6096316348932683,-0.10191665216386317,0.006121463142335415,0.0900866910815239,-0.7584457993507385
0.15330641019931063,-0.40387423063516614,0.07172609656155109,-0.0034419370349496603,0.06279057264328003,-0.6578630805015564
0.6921211175315082,-0.24864185734195635,0.0051303486257791514,-0.006949320435523987,-0.08486813306808472,-0.5365203619003296
0.8288398376811296,-0.5808052437836304,0.29473990217745305,-0.07880142331123352,-0.18045657873153687,-0.41676515340805054
0.9894729557730257,-0.5066792830061168,0.20771979037225244,-0.0796741396188736,-0.27795329689979553,-0.2837919294834137
1.467238352049142,-0.23566234785206613,-0.015056114834547041,-0.09184557944536209,-0.2713391184806824,-0.19611039757728577
1.6534095968276261,-0.4300870051803067,-0.10533259808719157,-0.03745131567120552,-0.0989694818854332,-0.12348492443561554
1.9347871824763714,-0.36279710096791384,-0.5490151074975729,0.00963536836206913,0.04343125596642494,-0.0706588625907898
1.9098988249354063,-0.17421720587881281,-0.23612404707968235,0.02280363440513611,0.08839926868677139,-0.028526857495307922
1.7544721163801849,0.08953680733386427,-0.13272212479412554,-0.0088922418653965,0.0011489111930131912,-0.002903685439378023
1.3150626081138848,0.243145123089198,0.2531874100834131,0.014046364463865757,-0.04206141084432602,0.04899466782808304
0.946925534357503,0.19029941235808653,-0.07434943080246448,-0.013935867697000504,-0.03446878492832184,0.0716826319694519
0.5496739732651039,0.030442082677967844,0.2113034940779209,-0.0038808370009064674,-0.07151176035404205,0.06389342248439789
0.4045100443206727,0.09412060972647741,-0.13915712627768514,-0.008062667213380337,-0.050787754356861115,0.02490302175283432
0.48086876911893484,0.19591522467955946,-0.09439034831225872,0.006949570961296558,-0.01754165254533291,0.00481479661539197
0.7917918173994869,0.18655670043211428,-0.12011807928681373,-0.02413351461291313,-0.053231801837682724,0.03746553510427475
1.1319553540159015,0.21625271398313342,0.14100246188342572,0.021049676463007927,0.0224312674254179,0.1481153517961502
1.3227150225631892,0.26668657779954374,-0.17205284918546676,0.023182611912488937,0.0012647658586502075,0.26101285219192505
1.2748412184931337,0.10929868870656936,0.11495090578198432,0.026104630902409554,-0.0021017356775701046,0.3839842975139618
1.1100014424916356,0.06051449179332703,-0.17786533485651015,-0.0002476212102919817,0.011608509346842766,0.4833776354789734
0.8656711464721709,0.03355418681651354,-0.024622400081157684,0.004908259026706219,-0.021979276090860367,0.5631388425827026
0.7956400903254747,-0.00990463208919391,-0.05721534065008163,-0.02011387050151825,-0.048614367842674255,0.6227015256881714
0.7674671581558883,0.007110124266147613,0.10845452950000763,0.010135112330317497,-0.011960482224822044,0.706111490726471
0.7614101962044835,0.09856220890311523,-0.06615092677772044,0.0045980000868439674,-0.04735757037997246,0.7728641629219055
0.6915398835774511,0.08076651303684339,-0.031101240706443784,0.007070478983223438,-0.01715466007590294,0.820348858833313
0.6432970269992947,-0.005041263836529105,-0.06906827552914618,0.0021022246219217777,-0.07777221500873566,0.8204417824745178
0.3850487167971208,0.13318093794491143,-0.029826398465037342,0.026757236570119858,-0.06763489544391632,0.7433512806892395
-0.12611965778917072,0.6518821922540664,-0.03126549135744572,0.018942322582006454,-0.030912749469280243,0.6194214820861816
-0.5487881668739021,0.5842126410743221,0.01755143878161907,0.005291224457323551,-0.03475222736597061,0.49731719493865967
-0.7510223654419184,0.39342115261666477,0.010232640200853347,0.0033038360998034477,-0.01538410596549511,0.40807169675827026
-0.7788666501790285,0.24291374375242739,-0.03404664650857448,0.00018261116929352283,-0.0015058419667184353,0.34659343957901
-0.15661208241488783,0.1398342035553418,-0.052558454754948615,0.032346006482839584,-0.00892469473183155,0.3713303208351135
0.060500189273338764,-0.004834288288652897,-0.11180910062491893,0.008869843557476997,-0.008397637866437435,0.4735969603061676
0.17686971141528338,-0.26590591228324917,0.07718319292366504,0.0068595558404922485,-0.0297476164996624,0.43985286355018616
0.3094884123675525,-0.014577482738438993,-0.12542846065461635,0.009618856944143772,-0.015140177682042122,0.3696300983428955
-0.09391365244491025,0.4247533160021528,0.0033066403299570083,0.004244064446538687,-0.010717861354351044,0.26738324761390686
-0.4701493317818269,0.6982216263636947,0.01815232728421688,-0.008959089405834675,0.0007606293074786663,0.15566658973693848
-0.8792250400502234,0.48664771784655747,0.0006342062503099441,0.01054297760128975,-0.0010466971434652805,0.07219552993774414
-0.6993949079267681,0.21348310313932597,-0.049181087276339526,-0.006012030877172947,-0.00269838934764266,0.027929535135626793
-0.27317804044438526,0.46955282719340175,-0.043944355666637416,-0.004601620137691498,-0.013917254284024239,0.015744397416710854
0.1884358469759114,0.4228424774121493,0.01770925969183445,-0.019927045330405235,-0.031215019524097443,0.039525628089904785
0.5886029484551399,0.04656728804875165,0.07173778699934483,0.006996840704232454,0.003662623930722475,0.09915454685688019
0.8174792894288897,-0.08210364339211955,-0.1504623641461134,0.006328121293336153,0.003923613112419844,0.18320497870445251
0.891450899894908,-0.1268072016619146,-0.034359365719556806,-0.01472469512373209,-0.01226234994828701,0.26426786184310913
0.8566771812207996,-0.005611775467172265,0.010972060391306876,-0.006113896146416664,-0.014257058501243591,0.33366209268569946
0.6640010115277022,-0.08333753256862983,-0.09062076664566993,0.013486170209944248,-0.0006075906567275524,0.37023863196372986
0.34842107735201716,-0.18507669100742785,-0.05619418090879917,-0.0002669254317879677,-0.015518896281719208,0.35628366470336914
0.07248584715398028,0.27858212797762827,-0.015649404552578926,0.028729300945997238,0.004716470837593079,0.2963806390762329
-0.032217140942916736,0.1820317338209599,-0.009778466692566871,-0.002818239387124777,-0.02084188535809517,0.24695901572704315
0.07238229544796049,0.09516573486523702,0.042298926547169685,-0.006107239983975887,-0.004864023067057133,0.22151528298854828
0.1315284762964584,0.3348620692074299,-0.10551964509189128,0.002770407823845744,-0.008764754980802536,0.19615666568279266
0.17199985862290484,0.16446310644252224,0.0506985061019659,-0.009415818378329277,0.033631421625614166,0.1779380440711975
0.29874541149176653,0.05113770123682916,-0.04044306954741478,0.0020666676573455334,-0.0056432802230119705,0.16843189299106598
0.410175888062641,-0.08584328657817095,-0.05300912113189697,-0.0007267226465046406,0.005597955081611872,0.1732930690050125
0.5533612834757193,-0.1710057330190204,-0.007517536023259163,0.018953505903482437,0.01731107011437416,0.2160264104604721
0.5205739163132385,0.098091139058955,-0.0833680190384388,0.0026051602326333523,0.003093952778726816,0.25068554282188416
0.2845747925211675,0.12649185210242866,-0.022757190731167793,-0.0023214214015752077,0.011336170136928558,0.27088695764541626
-0.03477125957225216,0.19016972156381234,-0.10906301678717135,0.03217250108718872,0.025930173695087433,0.26120033860206604
-0.3791569553447887,0.19948237910922614,-0.06012450609505176,-0.033089324831962585,-0.10937412083148956,0.21801769733428955
-0.5126042526083067,-0.04781264846734702,0.4192828121691942,0.00946559477597475,-0.028258828446269035,0.18715091049671173
-0.45475094284825024,0.07380924124484882,-0.40446225965619087,0.001688897842541337,-0.04388545826077461,0.13853543996810913
-0.3322189708201215,0.12824799332106485,-0.051606853118538853,0.00865266378968954,-0.06511959433555603,0.09495177119970322
-0.061141017060680314,-0.14094318771054967,0.07335983524322509,-0.0037949513643980026,0.02195858582854271,0.09563540667295456
0.12237211442445405,-0.19379361114939675,-0.1315168406575918,-0.014592473395168781,0.019195159897208214,0.09628911316394806
0.08384258688078261,-0.09718061835160478,-0.007016016241908073,0.006784720346331596,-0.022574657574295998,0.1070229783654213
0.03286948335482739,-0.281590990937408,-0.011952888122200965,-0.008332179859280586,0.01794157363474369,0.13677570223808289
0.011852695133758242,-0.12719231025567276,-0.040546529921889306,-0.0005831804592162371,0.025004807859659195,0.16339027881622314
-0.02217725596834207,0.0848822960589081,-0.049535892063379286,0.021036095917224884,-0.012353446334600449,0.18706323206424713
-0.09830900132702663,0.10614016987672074,0.025893150669336316,-0.011264054104685783,0.014873648062348366,0.21042980253696442
0.05991707388944924,0.2077298916411586,-0.05969780511558056,0.006597633473575115,0.002301645465195179,0.2717454433441162
0.5813403005084022,0.8765838048264384,-0.04503682707846164,0.01567794755101204,-0.030601974576711655,0.3664000332355499
0.5430746845979243,0.560483536571078,0.04476794700920581,0.0006527919322252274,-0.00411075446754694,0.4053453207015991
0.09957768782228231,-0.3130527537856251,-0.043503041639924044,-0.011857939884066582,-0.005467635579407215,0.4533836841583252
0.12929186721765434,0.022592629552911966,-0.08586100489795208,0.002605289686471224,-0.026881607249379158,0.4923796057701111
-0.07721552429068833,-0.17861315754912793,0.01816810937523842,0.013203606009483337,-0.03767353296279907,0.5060743689537048
-0.3183442112572491,-0.4096207383979112,-0.08671148424744606,0.0024308538995683193,-0.02129223197698593,0.4962143003940582
-0.4012016504250467,-0.2498645858036354,-0.040461189725995064,0.0029291315004229546,-0.02398841641843319,0.48947837948799133
-0.3657272726682946,-0.010868234690651297,-0.04180032937526702,0.0037483186461031437,-0.01643109694123268,0.4312589764595032
-0.5460539926696568,-0.057283912374265486,0.016544307565689087,0.0040266187861561775,-0.0043517970480024815,0.3389245271682739
-0.6873856865074485,0.026394688716996458,-0.03178805392682552,-0.003698274726048112,0.007313699461519718,0.25031524896621704
-0.5361317335922271,0.40809707249458876,-0.05124386502504349,0.005097880959510803,-0.03496534749865532,0.21213099360466003
-0.21736166160572318,0.856192466443777,-0.0021603929042816163,-0.020533179864287376,0.01374227087944746,0.23827898502349854
-0.08678338957303203,0.9000504590012133,0.0010094693034887314,-0.011424637399613857,-0.02871277555823326,0.27158820629119873
-0.03257137719108723,0.6935461088333279,0.08315116141736507,-0.011550071649253368,-0.011963091790676117,0.2735791802406311
-0.11991662016427143,0.3963246189732104,-0.032061025649309155,-0.010933155193924904,-0.028571683913469315,0.2465561330318451
-0.17569337937859816,0.25428744374718515,-0.02921791117787361,-0.007665723096579313,-0.01861732080578804,0.20341666042804718
-0.13678626896049825,0.30886472751125693,0.04649111754000187,-0.006093522533774376,-0.010098814964294434,0.1735936850309372
-0.03332603376657935,0.3989080230625346,-0.06783610338568687,-0.004837576299905777,-0.0017165150493383408,0.14160378277301788
-0.058762177366437386,0.4172211303990334,-0.011716156756877899,-0.00024655601009726524,-0.00891567301005125,0.12195046991109848
-0.11219396262350491,0.4644016184426844,0.0048871875196695325,0.01165830623358488,0.025082241743803024,0.12996073067188263
-0.11086871450226753,0.6067340137556195,-0.008126023310422897,0.02044367417693138,0.03675300255417824,0.14768022298812866
-0.09709104950516484,0.6794288822840899,-0.05270516974925995,0.021266058087348938,0.07712412625551224,0.15483933687210083
-0.19756489158272741,0.6987572676103562,-0.04055295966267586,0.005676713772118092,0.04344342276453972,0.14223435521125793
-0.42143111277688294,0.514402388071455,-0.04517302067875862,-0.01097257062792778,-0.029333580285310745,0.09734997898340225
-0.5511444111438468,0.4498975114677101,0.09054127166867255,-0.009309159591794014,0.0025412291288375854,0.04038751870393753
-0.6168451464686543,0.4165404181258753,0.12972294297814368,0.02253718674182892,0.07261086255311966,-0.00035298895090818405
-0.4267431381125003,0.5103431758085265,-0.1463572669148445,0.018056020140647888,0.06363915652036667,-0.040961697697639465
-0.2678364784870297,0.5103573139317333,-0.11493220108151435,0.015144119039177895,0.051275692880153656,-0.05489296093583107
-0.17068457477325572,0.45363355619087814,0.02766366747319698,0.003558034310117364,-0.0021354882046580315,-0.030980311334133148
0.16471662454586475,0.48067649794984607,0.031684593552350995,-0.004678057506680489,-0.017956795170903206,0.020300455391407013
0.4281351769927889,0.4521062735583633,0.09960779069960117,0.0033006411977112293,0.0025239516980946064,0.0594305545091629
0.47814358193874357,0.44956075379401444,0.011315759262442588,0.021252211183309555,0.06642037630081177,0.06612787395715714
0.2595841801821254,0.34015188271123914,-0.09297171368598937,0.02383694052696228,0.08665819466114044,0.043384943157434464
0.10657670726361684,0.3399328696656972,-0.14847382067739961,0.023856647312641144,0.09288892149925232,-0.009760833345353603
-0.2226610466554761,0.2363177612871863,-0.04238134413361549,0.016334954649209976,0.06172982230782509,-0.026226144284009933
-0.1865544171434827,0.34979419233612713,-0.018897592693567274,-0.0001305714249610901,0.012040561065077782,-0.011212573386728764
-0.0350168432475999,0.4584312022635713,0.06877484554052353,-0.006638273596763611,-0.03758365288376808,0.017343122512102127
0.10737628754293546,0.494328627737984,0.0987000282049179,-0.023341884836554527,-0.10480476915836334,0.05509289726614952
0.1893778953326866,0.42329248620197174,0.11292319934666156,-0.039599016308784485,-0.1473809778690338,0.10042035579681396
0.18815920372530817,0.2850664484956302,0.1212912147194147,-0.029029732570052147,-0.12184711545705795,0.14274278283119202
0.1950054894234985,0.22829874201519412,0.04734042784571647,-0.0015863932203501463,-0.019760264083743095,0.14743606746196747
0.014108109377732034,0.20051270853765307,-0.15559212825000285,0.0008024622220546007,-0.01581905223429203,0.09966162592172623
-0.198661290250998,0.21274969256455079,-0.23863807572722434,-0.019743023440241814,-0.06676924973726273,0.02333691343665123
-0.35195363539233804,0.32991610070522875,0.04281622841954231,-0.006022416986525059,-0.048226989805698395,0.026480773463845253
-0.30130218330249187,0.41263672521822153,0.10339549254477023,0.01160011813044548,-0.04650228098034859,0.08172595500946045
0.13689972100602463,0.3895834741499275,-0.10983809281289576,0.006598168984055519,-0.007447555661201477,0.1211540549993515
0.37763979224748906,0.28591484548589213,-0.1147597671240568,0.021176043897867203,0.02758992463350296,0.13291285932064056
0.4292198669569567,0.1823953795015812,-0.03287877177298069,0.0135149285197258,0.03172660991549492,0.13348731398582458
0.38430096716973927,0.17981288872770965,-0.10766016425192355,0.01123193372040987,0.015095453709363937,0.1209685206413269
0.15780342935761435,0.198611386694666,0.025092940202355384,0.015178206376731396,0.02973165363073349,0.09945416450500488
-0.02629686806544196,0.35249263763986527,0.0052139352560043335,0.007705110125243664,0.044416822493076324,0.04431277886033058
-0.22688816283121704,0.4911915718212723,-0.06314473069906235,0.011402110569179058,-0.028799599036574364,-0.033287473022937775
-0.6300150822304189,0.6184457865983247,0.12075637719035148,0.0014645250048488379,0.006955434568226337,-0.13995784521102905
-0.8648413445845246,0.4090125433716923,-0.017797522497177122,0.02209869772195816,0.0061620790511369705,-0.2173841893672943
-0.7800739070769399,-0.04043660327401012,-0.04995031808316707,0.049309141933918,-0.023294726386666298,-0.27163535356521606
-0.5247508732043207,-0.1558522770235315,-0.1987503019750118,0.0552716925740242,0.013773811981081963,-0.29421868920326233
-0.1822477877244353,-0.09810779793281107,-0.17048574599921704,0.04383062198758125,0.036077968776226044,-0.2795376181602478
0.2252913951590657,-0.08058832519203424,-0.08657587516903877,0.006745572201907635,-0.0007620719261467457,-0.25632044672966003
0.5041523218117654,-0.10247726345499977,0.10008300699591637,-0.010825160890817642,0.05555099993944168,-0.22647526860237122
0.6360217752993107,-0.04819925489844754,0.16411328835785388,-0.04825189337134361,-0.04374575614929199,-0.18374298512935638
0.6352215648323297,0.16081888645496217,0.27445231643021106,-0.09397025406360626,-0.0412917323410511,-0.12767599523067474
0.5393949366392568,-0.12859271510550752,0.12771452576518058,-0.0027379398234188557,-0.0003484492190182209,-0.05703553557395935
0.43110816492158915,-0.22045334401074795,-0.3415881625920534,-0.0033384826965630054,-0.03746119514107704,-0.08580885827541351
0.11362499094046652,-0.031044414218980815,-0.26052666693031784,-0.013920821249485016,-0.0339774489402771,-0.13643506169319153
-0.34416984964832664,0.08314124281154946,0.06056991177499294,0.011391726322472095,0.00864377897232771,-0.18084034323692322
-0.59612702381704,0.013579923068452626,-0.054209729093313216,0.012996412813663483,0.023884069174528122,-0.22912783920764923
-0.5927326321383938,-0.08279144299319013,-0.15968553504347802,0.011425945907831192,0.03950989991426468,-0.2545141577720642
-0.19154051672667263,0.19428466433566063,-0.04067337117195129,0.02097337692975998,0.07904522866010666,-0.2441890686750412
-0.028616125342843586,0.06883958133980632,-0.07357201668918133,0.015898190438747406,0.0343904048204422,-0.23945556581020355
-0.07732840094747953,0.2746845360171981,0.02683423091173172,0.0053788404911756516,0.04617467522621155,-0.22429583966732025
-0.06008575868697371,0.22996932384222746,0.04252630556225776,-0.0239417627453804,-0.020017126575112343,-0.2018701583147049
-0.11372456972426734,0.19831861429316922,0.07438216402828693,0.02301217056810856,0.08939296007156372,-0.17934240400791168
-0.18988571699066087,0.045950745319295674,-0.25196166768074035,-0.002852183301001787,-0.011144029907882214,-0.2030554562807083
-0.4157926319658756,0.09196385181769728,0.2168453461140394,-0.002543133217841387,-0.011979356408119202,-0.21503561735153198
-0.30842355961501594,0.013076010400615632,-0.08346563419401645,0.005819991230964661,0.01486184448003769,-0.2336399257183075
-0.2707975567823276,0.06194214997626841,-0.09469020804166793,0.002372263465076685,-0.002096099779009819,-0.2672649919986725
-0.16926610454376786,0.3147470635481179,0.03593056055903435,0.001523513812571764,0.020371925085783005,-0.2782672941684723
0.14856643086429686,0.39565249186530704,-0.12687398328781127,0.028377501294016838,0.10405976325273514,-0.2619899809360504
0.3755414682613685,0.3234419727876782,-0.2056961755901575,0.03793558478355408,0.09887485206127167,-0.24077896773815155
0.4038463927801698,0.2819865113273263,0.07741407907009125,0.02838682383298874,0.03586646914482117,-0.2032509446144104
0.33926012150328605,0.024529844693187624,0.04373392778635025,0.0019213962368667126,0.06462860852479935,-0.14766278862953186
0.22108581496169788,-0.33319873910509046,-0.043508302336931225,0.04587220400571823,0.13703320920467377,-0.11070109903812408
-0.03128197670136578,-0.24213242064900695,-0.3345505190402269,0.058647122234106064,0.1367650330066681,-0.15001069009304047
-0.316599194220826,0.13774585297396405,0.07836860331594944,0.023777954280376434,0.09184201061725616,-0.20269006490707397
-0.18014504329152403,0.36636115012504156,0.07830547495186328,0.02032942697405815,0.10270904004573822,-0.18754839897155762
0.23912173105832188,0.38664625165425237,-0.04206628683507442,0.01865776628255844,0.053759414702653885,-0.13830241560935974
0.42878728422597046,0.5764977923806757,0.11400690293014049,-0.0033487328328192234,-0.03038502298295498,-0.07973843067884445
0.5331877160295844,0.23633635638980194,0.14965864654779434,-0.020296022295951843,-0.08449862897396088,-0.002467456506565213
0.5342696660473942,-0.2550037205240689,0.04676175117492676,-0.0137795340269804,-0.0812532976269722,0.055776674300432205
0.2743648938750848,-0.13617200951967387,-0.08263502858877181,-0.019450608640909195,-0.044402360916137695,0.059473298490047455
-0.1754387652967125,0.05233849186133593,-0.10625322006344795,0.019426483660936356,0.027559712529182434,-0.009731074795126915
-0.5455796896887943,0.1178155196991749,-0.235566997718811,0.02468489296734333,0.10306063294410706,-0.11428613215684891
-0.5581488100131974,0.11343496652739121,-0.10978548584282398,0.04190995171666145,0.13139000535011292,-0.1950499564409256
-0.22014826011694966,0.33231095995251086,-0.08876783225536346,0.035761911422014236,0.12230400741100311,-0.19989758729934692
0.22275727357156574,0.35227705866042525,0.03533668631911278,0.0130989458411932,0.07753042131662369,-0.13833196461200714
0.5393065277034417,0.24328632165817543,0.14364976152181624,0.01146935299038887,-0.014214608818292618,-0.03944956511259079
0.7372113552976399,0.13803689007610082,0.08593874630928039,-0.017257366329431534,-0.08228021115064621,0.05363190919160843
0.6113381465502082,-0.003625862346962094,0.04622223747074604,0.010081455111503601,-0.04695732519030571,0.12323590368032455
0.22867665368318557,-0.14266328950142487,-0.22186755819022655,0.04647355154156685,0.043703336268663406,0.13149836659431458
-0.29174225473143156,-0.03984187051756307,-0.3210731978297233,0.06733262538909912,0.11853501200675964,0.06766402721405029
-0.6413794298749417,0.2774187650203705,-0.15350596962571142,0.061036113649606705,0.11336235702037811,-0.03756066411733627
-0.5860994412016123,0.2805891021521762,0.021211130332946776,0.06423323601484299,0.12819163501262665,-0.08947359025478363
-0.06816078702909871,0.33049722506143153,0.0876987417191267,0.03971084579825401,0.09535219520330429,-0.05636996775865555
0.444593194514513,0.3946067822046578,0.07418985632658004,0.030447842553257942,0.0297783762216568,0.03887489065527916
0.7063387357152998,0.062457022429537025,0.0618003303527832,0.023524420335888863,0.0011595147661864758,0.14760936796665192
0.5983737798305228,0.1036743642850779,0.04822305589914322,0.012982700020074844,-0.017296839505434036,0.20407798886299133
0.2965647612507455,0.08174562373468652,-0.036438510081171986,0.004079220816493034,0.035073958337306976,0.21107223629951477
-0.1334910816063173,0.1531112894860096,0.08046762142181396,-0.03324219211935997,0.19294233620166779,0.1785249561071396
-0.541778032383509,0.4764782060097903,0.08111351810991764,-0.08285129070281982,0.2273959219455719,0.10942710936069489
-0.7810968203838914,0.4389878487881273,0.2275245610386133,0.05407673493027687,0.199928417801857,0.03669292852282524
-0.6402820630922913,0.35852464781310406,-0.881429783552885,0.03348703682422638,0.13345031440258026,0.020071808248758316
-0.48616271080859,0.5478232673645019,-0.08085223682522773,0.038944121450185776,0.13519442081451416,0.026291623711586
-0.3787039143476635,0.24986986476695164,0.20389526364803312,0.014529193751513958,0.09460119903087616,0.04377413168549538
-0.19469150983719155,0.07603782228082417,-0.046855859199166294,0.036617714911699295,0.04785233363509178,0.04729003831744194
-0.08837580073047428,0.2359769119602628,0.0686760613411665,-0.004409343004226685,0.030147574841976166,0.02532779611647129
-0.016966825560387224,0.21197171219568697,0.04219897330403328,-0.0035640555433928967,0.003904251381754875,0.004679774399846792
-0.07762386762956157,0.29242585308142005,0.093489015558362,0.003317286027595401,0.01145910657942295,0.0011486890725791454
-0.02476927947225049,0.40794425655305383,0.010861001232266425,0.009881711564958096,-0.0005469559691846371,0.0017439057119190693
0.011210015599336475,0.5156069780882447,-0.027757190975546835,0.0027644154615700245,0.04581168666481972,-0.0021162978373467922
-0.015382058853283524,0.38238950752522793,-0.07519640302062035,0.036274705082178116,0.1243954449892044,-0.00047845393419265747
-0.16819949822556227,0.2606905157225206,-0.04563420844972133,0.051874835044145584,0.17975656688213348,0.007482514716684818
-0.28146939211804417,-0.015439232400618492,-0.29560090292096136,0.07136251777410507,0.19382870197296143,0.00020942138507962227
-0.4085309338672086,-0.2099843012381345,-0.21664719319343564,0.05376102030277252,0.20622938871383667,-0.019837552681565285
-0.4881182287905365,0.008544614048674702,-0.12286942382156849,0.03829977288842201,0.15060661733150482,-0.047348007559776306
-0.48858493298683314,0.2833549501363188,0.10591419736742973,0.05741275101900101,0.16436779499053955,-0.06474138796329498
-0.39530809887442736,0.4769138209480792,0.0525941105902195,0.04962167143821716,0.11487774550914764,-0.09482605755329132
-0.28982955297790464,0.6908585502497852,-0.09496551785171031,0.0021984970662742853,0.07857399433851242,-0.09327764809131622
-0.16428809693548826,0.5767999901976436,0.09121580992937088,0.005252078175544739,0.07363623380661011,-0.048030804842710495
0.02834975004121661,0.23345822540391234,0.1735591620951891,0.02653658762574196,0.08489178121089935,-0.009539641439914703
0.12199826701022684,0.024653772466955704,-0.069551675131917,0.01360800676047802,0.01927388645708561,-0.01613256335258484
0.011286313972249627,-0.1965731771316379,-0.02886076830327511,-0.01433840673416853,0.04719340056180954,-0.026873623952269554
-0.16403934633880854,-0.09019391040257178,0.03212649210095406,0.0361332930624485,0.10472168028354645,-0.0012590750120580196
-0.19773805619254708,-0.018113931502588092,0.07554945424199104,0.06451433897018433,0.16977235674858093,0.017968717962503433
-0.10813549014609307,0.0838943262011744,-0.3455354389131069,0.04695771262049675,0.1352125108242035,0.017386816442012787
-0.14786924238037316,0.2680533726407215,-0.19152385785281656,0.011664697900414467,0.07550732791423798,0.01226845197379589
-0.20994469988010822,0.10540856766654177,0.05623685100674629,0.015011493116617203,-0.026481883600354195,0.01009877398610115
-0.38117315400540824,-0.1435577997888904,0.213399589574337,-0.03763653710484505,-0.054667484015226364,-0.004223281517624855
-0.4481744505347684,-0.28138839930370446,0.04046645042300224,-0.022532153874635696,-0.13692933320999146,-0.01713535189628601
-0.4476965308247134,-0.28900113932974636,0.19339023624658583,-0.04710754007101059,-0.07999347150325775,-0.047984711825847626
-0.2713774024968967,-0.15723985892441122,-0.07295300800800324,0.017363596707582474,-0.011785393580794334,-0.07111240178346634
-0.2433561172250658,-0.08634956473303027,0.01828092209994793,0.014873006381094456,0.08099644631147385,-0.11278485506772995
-0.1527597178356722,0.06626596799213438,-0.42561259971261023,0.022294173017144203,0.05015090852975845,-0.14094725251197815
-0.12342146821375935,0.2279040618754923,-0.1282014324992895,-0.00043697317596524954,0.059154558926820755,-0.11312296986579895
-0.0655626054957509,0.06311312998440116,0.04952127901613712,0.029880188405513763,0.01020299643278122,-0.008269786834716797
0.07309672732762992,-0.10847407445069401,0.06590133593082427,0.01704907976090908,0.040901318192481995,0.08905797451734543
0.14098196708466856,-0.18034306834796443,-0.1204635317236185,0.005895494483411312,0.0952063724398613,0.12539201974868774
-0.026011077960580584,-0.044998750957241276,-0.08344459140598773,0.03316878899931908,0.06801988184452057,0.1273161917924881
-0.2119987828657031,-0.14588451657025142,-0.11996961072683333,0.01465609297156334,-0.008314305916428566,0.1505645215511322
-0.3542988468116149,-0.07221996275940909,0.015142624074220656,-0.020524924620985985,0.013694568537175655,0.11813781410455704
-0.1443893643753603,0.4999389784330502,0.08432429684996605,0.0002064539585262537,-0.04402252286672592,0.05721241608262062
-0.35439916538093236,0.07109950736211612,0.13827683631181717,-0.038789816200733185,-0.10590435564517975,-0.0362883061170578
-0.7221604280948638,-0.690698756578192,-0.049556934851408004,-0.04388391226530075,-0.1500622183084488,-0.13014023005962372
-0.8938906942624598,-1.0039295703444628,0.12715513831675052,-0.034684959799051285,-0.09193312376737595,-0.19404971599578857
-0.7206763270169496,-0.9082017628833651,-0.03377835096120834,0.017469322308897972,-0.01704370230436325,-0.22014309465885162
-0.4424460994832217,-0.7239722998224198,-0.17527181123197078,0.02186727151274681,0.12350717931985855,-0.24475829303264618
-0.23367848055846988,-0.5919171510370448,-0.48673488467335696,0.055476896464824677,0.1388230174779892,-0.2457154393196106
-0.039569099724479015,-0.5377948810314759,-0.17586217834055423,0.06470555067062378,0.1587732881307602,-0.24051295220851898
0.25125333674829453,-0.5661793735925108,-0.20579028361439702,0.05188482627272606,0.06984662264585495,-0.19785310328006744
0.3303644655272364,-0.4910123793294653,0.09617956981658934,-0.01562657207250595,0.05108032003045082,-0.13465997576713562
0.5830530957756563,-0.4395605341095477,0.3454354856699705,0.00017289700917899609,-0.05849943682551384,-0.09274421632289886
0.4968685580117628,-0.6089529319141059,-0.0006289455533027648,-0.025822358205914497,-0.09644187241792679,-0.0908324345946312
0.20676442587617783,-0.7734858339235187,0.2285842992246151,-0.0010134116746485233,-0.013988012447953224,-0.11164404451847076
0.026922164923511443,-0.797708859423548,-0.24491058012545108,0.01977628841996193,0.05000428482890129,-0.1773010790348053
-0.09769735396839678,-0.5716829029122367,-0.26373160045146943,0.03683236986398697,0.08745443820953369,-0.2391366809606552
-0.2625813709704205,-0.35246436139345166,-0.22495032663643358,0.04870714247226715,0.14636701345443726,-0.2589932084083557
-0.20188312010802328,-0.32210739971566943,-0.15292729295492172,0.0502588264644146,0.15458843111991882,-0.24591492116451263
0.22100535187032072,-0.43858387109711766,-0.037309447696805,0.04455513507127762,0.1381804198026657,-0.19119973480701447
0.4540638738995418,-0.5180499142609536,0.07152735911905765,0.023043319582939148,0.08631017804145813,-0.11442264169454575
0.6177922911256551,-0.5724389454439283,0.14601122995615004,0.015120947733521461,0.045782990753650665,-0.016103800386190414
0.6836781372264027,-0.5366351896023377,0.06448971556723117,-0.011563785374164581,-0.012833726592361927,0.06833438575267792
0.5071574949771166,-0.5853547968467697,0.1717600037187338,-0.04361093416810036,-0.09221190214157104,0.13304734230041504
0.2597910461321473,-0.5296360148973762,0.1647609386116266,-0.04623841494321823,-0.10009882599115372,0.1625220626592636
0.0248277499275282,-0.3668702686909586,-0.07318272511065006,-0.027361664921045303,-0.0810183435678482,0.16255241632461548
-0.19487430079188198,-0.3398227238221094,-0.1506798062890768,-0.026336876675486565,-0.051937561482191086,0.14357829093933105
-0.3816424520175904,-0.515065053231269,-0.12491934208869933,-0.013211221434175968,-0.026065213605761528,0.13568253815174103
-0.4833746144600212,-0.6558746959563344,-0.16264613841474054,0.00966932624578476,0.03396882489323616,0.1305074840784073
-0.6644003130435944,-0.6687352735079825,-0.21946984939873218,0.013329043053090572,0.05426051467657089,0.08674590289592743
-0.9242685160651802,-0.6701375415213405,-0.08537935886085032,-0.002140588825568557,-0.00949094258248806,0.016486449167132378
-1.0912816175177693,-0.7086690783590078,0.09202186561524868,-0.0028993235900998116,-0.024605445563793182,-0.04655883088707924
-1.0392803582541643,-0.6091677802411839,-0.06496551638543606,-0.011339552700519562,-0.04513471573591232,-0.08993518352508545
-0.8929822741806507,-0.4034535210050642,-0.00393266327381134,-0.021998323500156403,-0.07252026349306107,-0.16595777869224548
-0.6868250569500028,-0.20706231284420937,0.013676643174886703,-0.029071805998682976,-0.10361235588788986,-0.21415463089942932
-0.3902752192737534,-0.21878184886826202,0.03706804015636444,-0.03330197185277939,-0.1019982099533081,-0.2245529443025589
-0.05797518257405609,-0.44469227097481484,-0.03626432255804538,-0.02236916683614254,-0.08173537999391556,-0.22404082119464874
0.18827530438564716,-0.6222746972367167,-0.12068681908547878,-0.00479629822075367,-0.025642819702625275,-0.2301274687051773
0.3682082392964512,-0.8025706933062523,-0.21148937203884124,0.033777061849832535,0.09752200543880463,-0.23495665192604065
0.44990540251322086,-0.6969188001368194,-0.4036176255255937,0.07858341187238693,0.23123693466186523,-0.2322562038898468
0.4256706135101616,-0.6741548874039203,-0.33367724333703513,0.08315592259168625,0.2573620080947876,-0.22510874271392822
0.41009741599895055,-0.7245921122211962,-0.04178980798125267,0.06329699605703354,0.1983998566865921,-0.20302847027778625
0.4305460740594193,-0.781085568337515,0.16993278829157352,0.03186837211251259,0.09674302488565445,-0.16393254697322845
0.4216677345443517,-0.7616123677130788,0.2688298003733158,-0.003239814192056656,-0.028483333066105843,-0.10495658218860626
0.5128455505508929,-0.5649458132095635,0.30157939280867574,-0.03352181985974312,-0.13680870831012726,-0.04998723044991493
0.5519269398236647,-0.37247123050317166,0.27533728257119655,-0.06496097147464752,-0.1911236047744751,-0.009767105802893639
0.6559650776535272,-0.36715025467611845,0.16766133622825144,-0.05928510054945946,-0.17880892753601074,0.006471678614616394
0.818025232873857,-0.4794712138133123,-0.12855097658932207,-0.02825048379600048,-0.09128280729055405,0.014260625466704369
0.867431068816781,-0.5968828471530229,-0.2674579274982214,0.003582942998036742,-0.01715177670121193,0.019945284351706505
0.8215599828712642,-0.6740175247598439,-0.2410404606938362,0.025137504562735558,0.05481376126408577,0.018746595829725266
0.6914934871524572,-0.8200442445460706,-0.18557400953769682,0.03533368185162544,0.09187190979719162,0.015796344727277756
0.4303319929173216,-0.9058572455838322,-0.06529518673121928,0.017794901505112648,0.03563340753316879,0.0044936235062778
0.4642339702581986,-0.9304927974075078,0.1614712494164705,0.0010557316709309816,-0.010947232134640217,0.03682326897978783
0.7298806470833719,-0.7934449183687567,0.05923895543217659,0.018199564889073372,0.02644062042236328,0.08637857437133789
0.7985834503009915,-0.5231619235124438,-0.19033610937297343,0.025772929191589355,0.07333773374557495,0.12426989525556564
0.7218210400726646,-0.4753766745086759,-0.13327917415499688,0.021213334053754807,0.06920797377824783,0.15868164598941803
0.581266066228412,-0.5676889744378626,0.09266425517201424,-0.006043191999197006,0.05901327356696129,0.18322491645812988
0.4616778195019811,-0.6716663585238158,0.1119236669152975,-0.008431781083345413,0.02919093146920204,0.18358257412910461
0.30326577499303964,-0.6619544542614371,-0.004655716851353645,0.006017199717462063,0.044438328593969345,0.1711176484823227
0.15696524323411284,-0.5195812154814601,-0.14626841958761214,0.016899406909942627,0.09991037845611572,0.14184817671775818
0.10771722820140421,-0.1894569153856486,-0.15357026703357696,0.03240606188774109,0.11060059070587158,0.10447994619607925
0.08852518260590732,-0.11285375083964318,-0.08743103069365024,0.06380180269479752,0.23873355984687805,0.10355114936828613
0.13556352223251014,-0.15826010535024104,-0.16248597941696644,0.07092496007680893,0.24360448122024536,0.1175985261797905
0.18520809883475303,-0.033526495091989635,-0.24231062676012516,0.04557153582572937,0.20806995034217834,0.1431197077035904
0.18179975169599055,-0.08521463328581302,0.021514497193694113,0.024245742708444595,0.075717493891716,0.16190457344055176
0.10206146746203303,-0.06678685919423587,0.15392857895195483,-0.022080346941947937,-0.02622130885720253,0.18221665918827057
-0.04048332849256694,-0.1770757553813979,0.34769992347061635,-0.023986371234059334,-0.057474568486213684,0.18543322384357452
-0.11211787431314586,-0.07566308438403066,0.14876549710035322,-0.04427779093384743,-0.0828852504491806,0.157856285572052
-0.21802103882990775,-0.0455446761358995,0.041326282122731206,-0.0315910242497921,-0.085480235517025,0.11409921199083328
-0.3882968684054911,-0.20487766228150575,0.07794014877080917,-0.009466948918998241,-0.04447489604353905,0.09546558558940887
-0.26308380406722426,-0.17804976977901532,-0.14781447998583316,0.0009396192617714405,-0.011425867676734924,0.08448430895805359
-0.025877880034968256,-0.20127463282085953,-0.17085224122405052,0.0076257530599832535,0.0031839031726121902,0.09964626282453537
0.16961510064452887,-0.008040829245001078,-0.12165244924724102,-0.003429560922086239,-0.018088363111019135,0.10277467966079712
0.20628639656826853,-0.00815078329234384,-0.04201777151823043,-0.023683425039052963,-0.04633034020662308,0.09182139486074448
0.03377630513459444,0.02877731867036782,0.035030396848917005,-0.02420780248939991,-0.10688476264476776,0.06742843985557556
-0.14853256512731314,0.08451813892163336,0.14309914190173148,-0.04856055974960327,-0.11962657421827316,0.03942011669278145
-0.3210722479816526,0.0075130699106957756,0.0019289222359657287,-0.050192274153232574,-0.13760104775428772,0.00777776911854744
-0.30722510707806794,-0.061284215790498996,0.10960077692568301,-0.016887186095118523,-0.06691261380910873,-0.008171546272933483
-0.18954919677898285,-0.06194362041414715,-0.09209609989523887,-0.0013684132136404514,-0.02403678558766842,-0.026431776583194733
-0.04587349709831178,0.020932139861630273,-0.33310090475380416,0.005721454508602619,-0.007552117574959993,-0.028463078662753105
0.07936283851768822,-0.029330870033055543,-0.01563654507100582,0.02423575147986412,0.06262190639972687,0.006838453467935324
0.2022848327767104,-0.1329958637015894,-0.13028174590468405,0.03893120959401131,0.086505226790905,0.043972574174404144
0.3210768510915339,0.04192698796223849,-0.23501404001116752,0.01680779829621315,0.07050894945859909,0.07379278540611267
0.2168791387857869,0.2286068946489133,-0.006719663643836975,0.018159082159399986,0.06119922921061516,0.0977652445435524
0.011802739061787724,0.25477551952507344,0.04590659565031528,0.01919638365507126,0.08400814235210419,0.08555784821510315
-0.1700602871287614,0.2882051666464656,-0.08136135539114475,0.01836308464407921,0.10532711446285248,0.06880228966474533
-0.22509404595606028,0.48300939787682146,-0.10519874257445334,0.025573326274752617,0.1051526814699173,0.04994603991508484
-0.11300605532452464,0.2709937186752446,0.009607786300778388,0.0537307932972908,0.1798054277896881,0.049014873802661896
0.03605710954815149,0.11931940318979323,-0.06812368815541267,0.07189168781042099,0.20517230033874512,0.05550446733832359
0.1497664908364415,0.0421819308376871,-0.34620880813002586,0.030125869438052177,0.09009218961000443,0.050587836652994156
0.03223082925826311,-0.3657711118100211,0.01836450873017311,-0.008684910833835602,-0.036470815539360046,0.05205923318862915
-0.17569025583975015,-0.6776958479464054,0.3770195414572954,-0.036172058433294296,-0.132857084274292,0.03958830609917641
-0.3278042596504092,-0.733924515646696,0.28616438153386115,-0.03770071268081665,-0.15723885595798492,0.01577139087021351
-0.3858582430817187,-0.509783642229624,0.14903262360394,-0.03758726641535759,-0.12755200266838074,-0.01490987092256546
-0.2941596180714667,-0.24424515675297007,-0.09514379702806472,-0.02277316525578499,-0.10051719099283218,-0.04771708324551582
-0.09251973213478923,-0.14415866089202461,-0.062275546649098394,0.0012109971139580011,0.00643349252641201,-0.03793582692742348
0.20971922056116163,-0.14029647817169316,-0.16875965285897254,0.00787822064012289,0.05205477029085159,-0.01676050014793873
0.3822637987863272,-0.0968182147799991,-0.2934732432425022,0.027670564129948616,0.0443090982735157,0.02124830335378647
0.4866375617787242,-0.07729139340533875,-0.045965632361173625,-0.0012092868564650416,0.03351610526442528,0.06365008652210236
0.4543873702328652,-0.03936871374759357,-0.05584814395010471,-0.0013521627988666296,0.031189188361167908,0.10788148641586304
0.37483459863364693,0.1283923519615084,0.1130348430275917,-0.010622626170516014,0.01519877091050148,0.13668890297412872
0.26413170568495986,0.26734500517565757,0.0066793316334486,-0.006084464490413666,0.01873829960823059,0.14663618803024292
0.036906858245283364,0.24338537985216824,0.0032739071041345594,-0.020871132612228394,0.0007478464394807816,0.1259639412164688
-0.24602285221628845,0.1805460801067762,-0.03646948974132538,-0.0030217000748962164,-0.021987682208418846,0.07372692972421646
-0.5222796607851982,0.005066087750531733,0.06550503008961678,-0.02600078471004963,-0.005931749939918518,0.013829506933689117
-0.5968685994319617,0.0045725457796594125,-0.1471679987758398,-0.0007346939528360963,0.00254706759005785,-0.02405078522861004
-0.42417898671291765,0.01955974639672786,0.0391916081815958,0.01109773013740778,0.04571690782904625,-0.035994529724121094
-0.21212591637670994,0.07470056406138464,-0.15969138026237487,0.01351852435618639,0.04496679827570915,-0.04334106296300888
-0.13538995576389132,-0.019641401364770716,-0.15401801080107688,0.015455706976354122,0.040000803768634796,-0.03095363639295101
-0.11924670327976346,-0.03931783294372726,-0.02891688240468502,0.011423030868172646,0.01932561956346035,-0.007217222359031439
-0.06198518540039658,-0.027744751619081943,-0.01893967826962471,0.02124743163585663,0.04305172339081764,0.042926374822854996
0.21219883548244833,0.2497794282708317,-0.09927227513492107,0.009486106224358082,0.012558182701468468,0.09472391754388809
0.2491436145853251,0.1848659891325049,0.06471008031964302,-0.024161875247955322,-0.05952746793627739,0.16016586124897003
0.11760032431222497,0.1100304187809117,0.1408539933234453,-0.04095150902867317,-0.09169445931911469,0.15085464715957642
-0.06836779910959304,-0.03318983331641648,0.04853986676335335,-0.018253514543175697,-0.04244086891412735,0.12122254818677902
-0.23779512209706008,-0.08560814438173547,-0.009472761744260788,0.002870147582143545,0.0029061036184430122,0.08474577218294144
-0.25273002170473335,-0.1324537196489051,-0.22648528111875055,0.007737474516034126,0.04998225346207619,0.06513886153697968
-0.0991151118118316,-0.11567869033357128,-0.10903788234591484,0.012326633557677269,0.06916287541389465,0.05505426973104477
0.02570003925003111,-0.07903850193414837,-0.08438625617027282,0.026693448424339294,0.10091392695903778,0.04838208854198456
0.004990063372254372,-0.008851853366941213,-0.05572364078760147,0.029512405395507812,0.07319174706935883,0.035012755542993546
-0.048465778613835574,-0.11650809949557296,-0.02933306199014187,0.01657131128013134,0.10790842026472092,0.01628469116985798
-0.02663381296880543,-0.04620962915092241,0.0043517654687166216,0.021855821833014488,0.09510020911693573,0.0035872715525329113
0.11372647855356335,-0.15948869729712606,0.030278233885765074,0.03740788251161575,0.10582555830478668,0.01567908748984337
0.21127010326497256,-0.019356383011466822,-0.1801864712804556,0.036692291498184204,0.12308336794376373,0.025334645062685013
0.1396300775516778,0.08271620406620205,-0.006999649628996849,0.03166625648736954,0.07032956182956696,0.018658673390746117
0.03312814342416823,-0.040376114391582084,0.16346096192896364,0.007513782009482384,0.006527946330606937,0.01777024380862713
-0.05250986637286842,-0.1834289968656376,0.12836392958462237,-0.01002886425703764,-0.05977640300989151,0.011502213776111603
-0.13797851095236838,-0.1949185965913348,0.1278968965947628,-0.04815654084086418,-0.09127946197986603,-0.010490701533854008
-0.20982669952362776,-0.15519600507188588,0.17026713481247424,-0.02369554713368416,-0.11156196892261505,-0.03773793950676918
-0.21555815584771335,-0.17451204237323253,-0.16740882277190686,-0.01462162472307682,-0.07788283377885818,-0.06780928373336792
-0.17209851495809853,-0.1868956135302782,-0.1974047325849533,0.0006254964973777533,-0.03650311008095741,-0.08810894191265106
-0.027401144079491496,-0.11128482102248817,-0.14941782352924346,0.009933244436979294,-0.015597827732563019,-0.09517617523670197
0.1282102003276348,0.04818114385302178,-0.027154548907279967,0.002124725840985775,0.02049744315445423,-0.06784823536872864
0.2225721262630075,0.1786376892021857,-0.06649930182397365,0.005767398048192263,0.0061888121999800205,-0.047730714082717896
0.2337945812188089,0.11382139029540121,-0.009211480459570884,-0.0043365065939724445,-0.05101403966546059,-0.033220596611499786
0.1324821785584092,-0.048388904852187255,0.213399589574337,-0.0028017268050462008,-0.08883998543024063,-0.035085875540971756
0.15780907364711164,-0.12665171883925794,-0.06593231559097766,-0.01402108371257782,-0.07361239194869995,-0.02125062234699726
0.21802155028656123,-0.279045416374132,-0.0338847339451313,-0.03605634346604347,-0.05778788402676582,-0.030434265732765198
0.1656458316873759,-0.4988750755285844,0.03987900592386722,-0.010835811495780945,-0.05159974843263626,-0.05220169201493263
-0.014371858897432683,-0.6480602958783507,-0.2313672079414129,-0.004952355287969112,-0.004592824727296829,-0.0977148488163948
-0.3004046499408781,-0.8379794219482689,-0.11437748980820178,0.0073120309971272945,0.021810382604599,-0.17333391308784485
-0.638012583790347,-0.7288130909170955,-0.21062135703265666,0.04461599513888359,0.07193426787853241,-0.2554127871990204
-0.7257809566795825,-0.4154250042298808,-0.2530968091905117,0.0461525097489357,0.11827336251735687,-0.3003719449043274
-0.5469738839935511,-0.1130652016332373,-0.0716208826214075,0.058889079838991165,0.16421714425086975,-0.3159445524215698
-0.2051170605279505,0.4622508336169645,-0.17739304116964338,0.06361018866300583,0.1877012550830841,-0.2914634644985199
0.20959530192054807,0.8809874466128647,-0.06037351242005825,0.06071240454912186,0.1590171456336975,-0.21932722628116608
0.5039397019743919,1.0039551431771367,0.10784487316906452,0.04146241769194603,0.12257969379425049,-0.1371220499277115
0.6095085199702531,0.99820249793455,0.15534429096877575,0.013883519917726517,0.02679218351840973,-0.05667487904429436
0.5455394672762602,0.3228794435340911,0.3368552888512611,-0.02389395982027054,-0.06658434122800827,0.01004707906395197
0.37526378383114933,-0.024982750976283566,0.18992343691885472,-0.03281581401824951,-0.06822565197944641,0.050670407712459564
0.2133612303253263,-0.05610504588719923,-0.044129064583778375,-0.02293521538376808,-0.09119993448257446,0.059624940156936646
-0.10006006451174616,-0.34227720430213954,-0.03669160805940628,-0.022771697491407394,-0.06858517229557037,0.013588475063443184
-0.34249037212878464,-0.18474256368223577,-0.11921850009858607,-0.00933884084224701,-0.038795460015535355,-0.04022851213812828
-0.4103028754431754,-0.22636388322878628,-0.17909750699996949,0.010272677056491375,0.011648009531199932,-0.0656566396355629
-0.3491545061931014,-0.160900262861792,-0.2285012971162796,0.020242471247911453,0.028333796188235283,-0.06633921712636948
-0.2786759985398501,0.11153878665040247,-0.039753918239474294,0.014506823383271694,0.045191071927547455,-0.03856910392642021
-0.09677965460158884,0.5196267351236195,-0.03182604784965515,0.03581131622195244,-0.03635998070240021,0.014270337298512459
0.04864347326830029,0.47724919038228686,0.01607669005393982,-0.013512291014194489,-0.07602083683013916,0.05453786253929138
-0.3247352274686098,0.14120792132765053,0.23255378737747667,-0.039732031524181366,-0.1519412249326706,0.05756406486034393
-0.3234780670143664,0.10730651024235412,0.18920330595076082,-0.06940790265798569,-0.20929346978664398,0.06211087852716446
-0.14008812351748345,0.17369698139699175,0.07037175934314728,-0.02936447784304619,-0.11940301209688187,0.0257705245167017
-0.09244308670200407,0.22447532953582702,-0.19006839834749698,-0.017832599580287933,-0.06134004145860672,0.0040969690307974815
-0.049073608313873404,0.24270395519295707,-0.249653390738368,-0.013992853462696075,-0.020032016560435295,-0.017648007720708847
-0.12464410534389317,-0.2751243704728782,-0.12293722836077213,0.0015490867663174868,-0.0033299699425697327,-0.05005963146686554
-0.2188145272951573,-0.5125200083909556,-0.15443243682086466,0.01371440663933754,0.009341349825263023,-0.08754975348711014
-0.38801907437741756,-0.46651433628033845,-0.07498539061844349,0.021396692842245102,0.07104147970676422,-0.11964305490255356
-0.4743707123365253,-0.19534708766909314,-0.1635205831617117,0.024983173236250877,0.08324728161096573,-0.15312643349170685
-0.4565484937895089,0.11002046364247799,-0.22495208020210264,0.018390512093901634,0.030899085104465485,-0.16642603278160095
-0.37110271862894295,0.27114797765519466,-0.009663900402188301,0.0035862659569829702,-0.0074088904075324535,-0.1335218846797943
-0.13834230276346207,0.34714864626340564,0.12005962709784507,-0.01078959833830595,-0.05419783294200897,-0.071342833340168
0.21054310416467487,0.4540188657140359,0.09199790021777153,-0.026990672573447227,-0.10491587221622467,-0.02833091840147972
0.28085246579609807,0.22475370808579026,0.1019067152917385,-0.046614713966846466,-0.1517529934644699,-0.017888648435473442
0.1667962438315153,0.011073968129511922,0.11271627859771251,-0.04669194668531418,-0.1497202068567276,-0.047394607216119766
-0.024526757686957716,-0.17669146877154707,0.10185936901867389,-0.033143386244773865,-0.13734926283359528,-0.10012315213680267
-0.15496566691473126,-0.29845786325465884,-0.04210077362656593,0.007237326353788376,-0.07767608016729355,-0.1571110635995865
-0.2001928654661402,-0.28830395084582267,-0.15649463004767894,0.009835653007030487,0.011009116657078266,-0.2171846479177475
-0.33326256158892065,-0.27671463533900675,-0.298525850456953,0.03283870592713356,0.04810348525643349,-0.2968062460422516
-0.5276670163793489,-0.4374325091049075,-0.2729553558707237,0.039880357682704926,0.10671402513980865,-0.4061451852321625
-0.6989367888957262,-0.7925561528354883,-0.17919161502420902,0.05628196522593498,0.0875784158706665,-0.5199095606803894
-0.8879786937396973,-1.2391694550007581,-0.21388766535222528,0.03852321580052376,0.024144375696778297,-0.5909220576286316
-0.8248002799667418,-1.1189452849909662,0.002610474759340286,0.013758212327957153,-0.03878079354763031,-0.5544306635856628
-0.5088752952130511,-0.5355164512380958,0.14664309811890125,0.037786051630973816,-0.018023381009697914,-0.4038562774658203
0.030760574042610823,0.17744915527105332,0.04904372463226318,0.014652236364781857,-0.01176788192242384,-0.19722722470760345
0.6508893818244338,1.1591990425113587,-0.09061609047055244,0.00396070908755064,-0.09811202436685562,0.010828202590346336
1.2163922443948685,1.6176504473127424,0.1988555159151554,-0.02723582461476326,-0.07159892469644547,0.2011512666940689
1.3444048763237892,1.1968038929581641,0.07638590506613255,-0.04197282716631889,-0.13975436985492706,0.3065049946308136
1.152297446429357,0.741562243983522,0.15540332767963408,-0.05639836937189102,-0.11276162415742874,0.3085812032222748
0.8714892581664025,0.43289194306582207,0.12184066529572009,-0.0027227497193962336,-0.032061122357845306,0.22922293841838837
0.560775030330941,0.3317469328615814,-0.07046469832360744,0.03936158865690231,0.11051759868860245,0.14504601061344147
0.2708002967286855,0.21339779947604984,-0.3128448831886053,0.06961483508348465,0.2527295649051666,0.060336071997880936
-0.050455418061092494,-0.023913507459708487,-0.33463585923612116,0.0964251384139061,0.3337317407131195,-0.0030612812843173742
-0.5017949450306594,0.43380087460428474,-0.46500879055559635,0.10285626351833344,0.2766643464565277,-0.039578184485435486
-0.8610204711221158,0.9087167997334152,-0.21748773567080495,0.08675719052553177,0.1062403991818428,-0.07211615145206451
-0.9737054777987301,1.2186355663422495,0.056581718921661375,0.1021590456366539,-0.07878841459751129,-0.07052436470985413
-0.836023027183488,1.4322019638508559,0.17909809152185915,0.12750141322612762,-0.1774231195449829,-0.06834883242845535
-0.44896468759700653,1.3041679968729614,0.0501321043908596,0.15109530091285706,-0.20577441155910492,-0.07377596199512482
-0.06140197868496179,0.9701668553438038,-0.13100363043844698,0.18922589719295502,-0.258576899766922,-0.041807904839515686
0.2855796404484659,0.7316764444589614,-0.13138123157918452,0.20509035885334015,-0.2780689299106598,0.03364603966474533
0.6174593328442424,0.6284761091601103,-0.16197160015404224,0.17749415338039398,-0.29224520921707153,0.10849285125732422
0.8272562948167324,0.9321008171260357,-0.019172902503609656,0.12954074144363403,-0.33287692070007324,0.19305211305618286
0.9022030339252203,1.0790076076824218,0.2523468676060438,0.06936421990394592,-0.34115535020828247,0.2739458978176117
0.7967069889046251,0.862486525086686,0.3632335926890373,0.0034372671507298946,-0.3438856601715088,0.29661083221435547
0.39485436375755817,0.6525537348400801,0.37019875552654263,-0.06305866688489914,-0.33364102244377136,0.25044652819633484
-0.11370145371016115,0.5562944143181666,0.36737142314612864,-0.1270003616809845,-0.2709949314594269,0.15599936246871948
-0.6348971551835536,0.5482576036611572,0.3598497954696417,-0.19244782626628876,-0.17567135393619537,0.0244035255163908
-0.8893473517443984,0.30638335902430114,0.2994470569550991,-0.23689529299736023,-0.07515938580036163,-0.08298259228467941
-0.9053184625320136,0.21330728991469367,0.26632161694467066,-0.24914264678955078,-0.014772740192711353,-0.11127761006355286
-0.5714309374451637,0.08228700060239061,0.09830898306071757,-0.2053082287311554,-0.04644472151994705,-0.05578386411070824
-0.004758592703938484,0.18627329864716155,-0.09719137720763683,-0.14543236792087555,-0.154874786734581,-0.004365416243672371
0.3208095784574747,0.3420923127219081,-0.32045243558287617,-0.1187066063284874,-0.2078625112771988,0.02904057502746582
0.22012551856217905,0.5460344111863523,-0.1180669919759035,-0.11416885256767273,-0.1685931384563446,0.047951679676771164
-0.059551565045304594,0.4715201452109962,-0.015054945790767668,-0.18690937757492065,-0.06360074877738953,-0.0020330636762082577
-0.3527601660022512,0.3034295872526243,0.11094517727196215,-0.2369230091571808,0.028158463537693024,-0.03504933789372444
-0.5218624582864344,0.09428360913530923,0.21509119592308998,-0.27241307497024536,0.10762452334165573,-0.08487841486930847
-0.6662936525095253,0.009011190380807966,0.18750468533933162,-0.22332222759723663,0.0250714048743248,-0.11504656076431274
-0.7700299213159829,0.009956179613340645,0.09481295763850212,0.013592308387160301,-0.05499893054366112,-0.1475038379430771
-0.5329286267019808,0.112615941762086,-1.0551543653428554,-0.011623441241681576,-0.11096345633268356,-0.21349479258060455
-0.5088062120322138,0.16053205060390754,0.19935528213083742,-0.02835049107670784,-0.042862698435783386,-0.2543780505657196
-0.027326745402719822,-0.05445084437280893,-0.09986965650618075,0.002540180692449212,0.02206677943468094,-0.2514989674091339
0.3980560824083164,-0.05279765207199379,-0.2554828275442123,0.04127878695726395,0.12621049582958221,-0.19133950769901276
0.7305414490796626,-0.03362968147182837,-0.2748743412345648,0.0653977021574974,0.20964087545871735,-0.13031578063964844
0.49143867845013733,0.10902094947742298,-0.14983984833359718,0.05053300783038139,0.18790362775325775,-0.09126771241426468
-0.09186645585782825,0.17333941839728503,0.0906008929014206,0.034082528203725815,0.15103989839553833,-0.1054999902844429
-0.5937303744714707,0.13487288222038185,0.13638064730167387,0.01799597032368183,0.0496474951505661,-0.1472487598657608
-0.6418351377531886,0.23389391340743748,0.1591021821975708,-0.011214626021683216,-0.02782185934484005,-0.17789839208126068
-0.47626284622605886,0.4150124413736164,0.1787345189064741,-0.018951641395688057,-0.07938225567340851,-0.18187369406223297
-0.19148904226776212,0.4578897157980129,0.04654840068519115,-0.020430780947208405,-0.09103215485811234,-0.1700790822505951
0.008299297518096863,0.32067440777048467,-0.022325813576579093,-0.014328411780297756,-0.08926142007112503,-0.15319252014160156
0.0484180670145899,0.060287551169656214,-0.08931143761277198,-0.013620138168334961,-0.0598144568502903,-0.15017178654670715
-0.041612332522496576,-0.03832101762583479,-0.08968611614406108,-0.0009437580592930317,0.01175719778984785,-0.16345536708831787
-0.06786284526214004,0.039545609251037235,-0.2534147890985012,0.049050696194171906,0.1429792046546936,-0.19651083648204803
-0.15293642610944808,0.1851018619813025,-0.3496709312826395,0.08140171319246292,0.22434036433696747,-0.24374891817569733
-0.10624737484455107,0.20452738753911107,-0.19169921441972254,0.06675072759389877,0.20421943068504333,-0.2456655651330948
-0.03931019305996596,0.1579239504647441,0.11786767001152038,0.022004829719662666,0.0884891003370285,-0.2150338888168335
0.016800766544789073,0.20844154704185203,0.369416665238142,-0.02806966006755829,-0.09271043539047241,-0.19259954988956451
-0.0009883899828419089,0.20706315309442577,0.4350684103220701,-0.07687021791934967,-0.2565166652202606,-0.18891452252864838
-0.049474736460670826,0.1282748995942995,0.3128793699800968,-0.08153661340475082,-0.29236432909965515,-0.19669729471206665
-0.02726832974636927,0.12224833278115838,-0.06909574805796145,-0.04710220918059349,-0.19658347964286804,-0.20923252403736115
0.014637560628913342,0.20760551634281874,-0.34601591590642927,-0.015841618180274963,-0.0895237997174263,-0.25406450033187866
0.0018550532821565865,0.3379293478235602,-0.2565647775620222,-0.007343736942857504,-0.009561062790453434,-0.28796252608299255
0.30081697533512486,0.04294389165351167,-0.14094517873823642,0.010147646069526672,0.03337506577372551,-0.3059479594230652
0.32800909804012623,-0.3409362014893442,-0.14149462931454182,0.014751452021300793,0.03807208314538002,-0.2681281268596649
0.4214069647163152,0.3338322147030383,-0.011389993542432784,-0.0008665252244099975,0.012115895748138428,-0.2543587386608124
0.2290971258512698,0.7346799371238798,0.14070435571968554,-0.023070896044373512,-0.06339963525533676,-0.2209233045578003
0.1967755313033238,0.5072121477738023,0.17115911521613597,-0.03520812466740608,-0.1385832279920578,-0.17370255291461945
0.20784082293603567,0.2236164842167869,0.1130219835460186,-0.060571007430553436,-0.21118499338626862,-0.158549964427948
0.08249664303138851,0.08782123558763415,0.16270342155992984,-0.08803711831569672,-0.27853551506996155,-0.1734996885061264
0.017827826303895563,-0.06516819935068488,0.0851367822766304,-0.07284218817949295,-0.22102269530296326,-0.20451539754867554
0.13393007581178099,-0.009615750411525369,-0.26396482468545435,-0.0017148822080343962,-0.028260918334126472,-0.23456302285194397
0.3093740652728826,0.3798164786994457,-0.45805765624344347,0.02724539488554001,0.06705521047115326,-0.25153428316116333
0.4836356765490025,0.3997349388733506,-0.2163438263326883,0.045808035880327225,0.0924491137266159,-0.2084265649318695
0.6793748870745301,-0.050098256920184936,-0.10214344665706157,0.002679206430912018,0.10863340646028519,-0.1425708532333374
0.5449348889792338,-0.18968807552671058,0.18889409387111664,0.011708647012710571,0.0893363282084465,-0.09012404084205627
0.27154762623095885,-0.02828607368785888,-0.06415829165577888,0.016116710379719734,0.06275984644889832,-0.0824434906244278
-0.11926781913302838,0.017232819552812723,-0.023268062862753867,0.008888226933777332,0.041468627750873566,-0.11577031016349792
-0.42076552500762043,0.10120950854150577,0.06663374185860156,-0.003419038839638233,-0.020794212818145752,-0.17993810772895813
-0.38952027272060513,0.3688314492287114,0.16780395956933497,-0.05860811844468117,-0.1803499311208725,-0.21092061698436737
0.08338939062003045,0.3780591867033392,0.4356178608983755,-0.12176844477653503,-0.3830662667751312,-0.1498069316148758
0.7092927632153034,0.43414998030290003,0.4643114559412002,-0.1456436812877655,-0.4263162314891815,-0.04339596629142761
1.017985129834339,0.32201836972534653,-0.016556582525372503,-0.04673575609922409,-0.1772904098033905,0.08481556177139282
0.9049114891663194,0.2278433994631283,-0.381145681476593,0.014148630201816559,-0.000222149770706892,0.12453873455524445
0.7226388592615723,0.1912723307771608,-0.4638724800020456,0.032512471079826355,0.13954974710941315,0.11239633709192276
0.3595970993502065,0.11969422785155474,-0.47882571898400783,0.017426995560526848,0.08262574672698975,0.07653447240591049
-0.10926760858171619,0.20914379529338328,-0.10312076725661753,-0.01709716022014618,-0.07605551183223724,0.06082582101225853
-0.43274541073460127,0.2570812757167965,0.17236089222133158,-0.06615898013114929,-0.22574779391288757,0.08055824786424637
-0.35036355318929996,0.43306656898036594,0.34132512774169443,-0.0915912389755249,-0.29900333285331726,0.11968331784009933
-0.11288608220666646,0.6744058664903044,0.32189211299717424,-0.058149389922618866,-0.1990860551595688,0.1541677862405777
0.06616017409667838,0.6068683807250111,0.04021159887909889,-0.000991425826214254,0.014324158430099487,0.11898808926343918
0.12143884302917868,0.4498408493770286,-0.49458442912995815,0.010390391573309898,0.019648617133498192,0.06376610696315765
-0.06572716210742946,0.29230651928437873,-0.24574527738392352,-0.0001545199193060398,-0.025918204337358475,0.047698888927698135
-0.034218329264072235,-0.06253118364429101,0.09601473464369774,0.003417311469092965,0.02286611497402191,0.026895076036453247
-0.08509238601247779,-0.039698918382916594,-0.0406336236834526,0.01564507558941841,0.09115742146968842,-0.004977270029485226
-0.2533050999126397,-0.11310215437645092,-0.23769582644104956,-0.043423037976026535,-0.10106208920478821,-0.06558548659086227
-0.4582726507009938,0.3259047461720183,0.028337621212005615,0.012281231582164764,0.04850432276725769,-0.06832635402679443
-0.5534412899093702,0.37172830318138,0.3338777343451977,0.00955069251358509,-0.08697174489498138,-0.11559506505727768
-0.4615865244893357,-0.05689655702449381,-0.3377005075037479,0.06024063006043434,0.15903973579406738,-0.14705073833465576
-0.5294526942197233,0.1676618476849049,0.1543096872240305,-0.001476262928918004,-0.08788935840129852,-0.20093181729316711
-0.3328155484737828,-0.3589649754591286,-0.1745779837489128,0.0022448385134339333,0.041534423828125,-0.18453668057918549
-0.5040514917857944,0.8325262711089104,0.27683599669635295,-0.013731464743614197,-0.03307270258665085,-0.1794777363538742
-0.09125424224361776,0.488981713752076,-0.3511521097511053,0.00690258527174592,0.04521971195936203,-0.1886528581380844
-0.04092509004385211,0.21700817199293523,0.2291238129287958,0.013546906411647797,-0.05286451056599617,-0.18458381295204163
0.07054170451599638,0.07657717158822343,-0.08615852653980255,-0.0028307465836405754,0.01845412328839302,-0.15064865350723267
0.2423180611479096,0.1837191571849398,-0.03785188401043415,0.007685277611017227,-0.014271066524088383,-0.12607541680335999
0.27886742945872245,0.10337987485053017,-0.03604921850264072,0.023509519174695015,0.007864471524953842,-0.09717016667127609
0.18163455119691788,0.15271423472613097,-0.06658756462931632,-0.03313485160470009,-0.0513615682721138,-0.10120059549808502
0.024044040787487755,0.22114852320067582,-0.021525018587708472,-0.03116784617304802,-0.0420464426279068,-0.11547501385211945
-0.16221667922260238,0.3604454963404685,-0.0164566292822361,-0.014750524424016476,-0.07307839393615723,-0.15113261342048645
-0.3503071102943271,0.35202633530236777,0.020523732590675352,0.00549390260130167,-0.04191085323691368,-0.1738431453704834
-0.34847788557317105,0.4586744364349171,-0.05726268692314625,0.031186215579509735,-0.10119122266769409,-0.18436503410339355
-0.20966248540524393,0.12598454190110786,-0.04477203866243362,0.046124812215566635,-0.09845252335071564,-0.1358335018157959
0.04465399264018051,-0.049537134172394866,-0.11398176848888397,0.04499669745564461,-0.09991912543773651,-0.06357528269290924
0.31856939831525083,-0.2695049231559038,-0.07646773813068866,0.022575678303837776,-0.09618329256772995,-0.007933359593153
0.34937724556569005,-0.2912196008305065,-0.06415069287121296,0.06341046094894409,-0.012414091266691685,-0.0007244492881000042
0.08348137061926536,0.19749949819631873,-0.0110842885941267,0.08340200781822205,0.11519226431846619,-0.06936357170343399
-0.3103263244964182,0.46624644259177145,-0.27770342718064783,0.033755090087652206,0.010490616783499718,-0.1651391088962555
-0.6170848004434257,0.31834720693193375,-0.054009238085150714,-0.04069702327251434,-0.09848394244909286,-0.1909998208284378
-0.4412514098059386,0.0474672142968513,0.2737006212800741,-0.16696681082248688,-0.03462453559041023,-0.15815265476703644
-0.04738429438690655,0.04478277925215661,0.5264812041282654,-0.012092399410903454,0.2603435516357422,-0.11555587500333786
0.21228837692942468,0.02615693443836644,0.6216688402980566,-0.004399859346449375,0.22938404977321625,-0.12743490934371948
0.2865411241580732,0.07608027318306267,-0.8912766393065452,-0.03978663682937622,0.14966446161270142,-0.05329344794154167
0.32371417732518165,-0.011306954901479184,-0.1722428187996149,-0.031225107610225677,0.04838844761252403,0.04131881147623062
0.556848029612936,-0.39116869751475747,0.13946633835732936,0.02033209800720215,0.003665823955088854,0.07892902195453644
0.44471068341434,0.06991343938270583,-0.34372868175208565,-0.041116613894701004,-0.019219517707824707,0.07011502236127853
0.16864154290463773,0.3377456252871081,-0.13559212727248668,-0.012677093967795372,0.06471729278564453,0.05410609021782875
-0.067130617430876,0.6208251560155302,0.21598376084864138,0.002350591355934739,0.011834638193249702,0.04479727894067764
-0.04466431310479529,0.4063394151723012,0.002681201907992363,-0.021897904574871063,0.02090824767947197,0.026283681392669678
0.0398038080960745,0.08069551189355552,-0.19109949496090411,-0.011679621413350105,-0.02170419506728649,0.04368237778544426
0.08362009410336613,-0.09487899034572765,0.1507622238755226,-0.017082642763853073,0.04798140749335289,0.045284003019332886
0.15053382194712758,-0.22520251129921526,-0.13833470397889613,0.0003139250911772251,-0.07389496266841888,0.03301588445901871
-0.13046164164938964,0.009746427586488426,-0.07460837399959563,0.005314793903380632,-0.0032579684630036354,0.008503073826432228
-0.22936480034412815,0.2663026017169468,0.019532967987656594,-0.02496427483856678,0.08824296295642853,-0.03286590799689293
-0.23683109937049446,0.47977695529423653,-0.09719079268574714,0.003650325583294034,-0.02119271643459797,-0.04339524358510971
-0.2422941505493596,0.40240273331049825,0.13819383420348166,-0.01026455219835043,-0.013388961553573608,-0.023364266380667686
-0.12455441776644438,0.12467548686284571,-0.18297990139126777,0.02141081914305687,0.01313692145049572,-0.011337697505950928
-0.006740188125346321,-0.20224196174936368,0.020268296524882316,0.0046968283131718636,-0.03543129563331604,-0.00717679550871253
-0.0021327011797577142,-0.4089430583320558,-0.1762257509559393,0.010519297793507576,0.03435630723834038,-0.009862327016890049
0.061688650139234955,-0.37620460834521796,-0.11922025366425514,0.005975667387247086,-0.05388439819216728,-0.01970566064119339
0.04278698862532619,-0.225933693384286,-0.003995791637897491,-0.037296440452337265,-0.02463410049676895,-0.02693374827504158
0.09005726927770301,-0.24102228571632875,-0.04396130680143833,-0.011163238435983658,0.036933910101652145,-0.024375436827540398
0.14214581409911625,-0.3847991990154609,0.001488192731142044,0.00479868333786726,0.015141528099775314,-0.006277126260101795
0.22938998958431184,-0.5062083044935017,-0.11404665041863918,-0.006492317654192448,0.02946794033050537,0.007115423213690519
0.18756045238086952,-0.6721222855977713,-0.02185761154294014,-0.004156725015491247,0.027622103691101074,0.01675313711166382
0.14238271899437532,-0.9174619047902524,-0.048664369925856585,0.003652188926935196,-0.08229625225067139,0.018823496997356415
0.08776794363097287,-0.9163110542546957,-0.11389876638054847,-0.0018807946471497416,0.011465659365057945,0.026344530284404755
0.004373200982389971,-0.857493466039747,-0.006335048240423202,-0.008372110314667225,-0.05624162033200264,0.01728329434990883
-0.12477674614707938,-0.7688996021118014,-0.015311550900340079,-0.012904810719192028,0.04172808676958084,0.018463341519236565
-0.09877822627397254,-0.8719241424523293,-0.08085165230333805,0.006439601071178913,0.05783660337328911,0.025022953748703003
-0.08590219542486592,-0.9572587853886186,-0.12845628404319284,0.0024057109840214252,-0.002466954290866852,0.0388500839471817
-0.005763696359563619,-1.0299710434433071,-0.0729547615736723,-0.0049291811883449554,0.01302039809525013,0.061142269521951675
0.0510281810143264,-0.9599480975378304,-0.04616612336933613,0.00870007835328579,-0.0003508017398416996,0.06624089181423187
-0.12380274088261649,-0.7547682739719748,-0.11812369059920311,-0.02152467519044876,-0.05472893267869949,0.07904964685440063
-0.2778619787432253,-0.671949194053188,0.05604980400204658,0.011523289605975151,0.013428284786641598,0.08344598859548569
-0.41786388528198,-0.552849278832972,-0.19889760149121283,-0.004621184431016445,-0.0655255913734436,0.06186289340257645
-0.5406629107484594,-0.43918899738341566,0.11296879205405712,-0.015351060777902603,-0.0037035010755062103,0.04657528176903725
-0.5309739489702507,-0.5487908337550238,-0.11998773090541362,0.0080276383087039,0.018267706036567688,0.023618467152118683
-0.5757131813416257,-0.8663589095406233,-0.11531623196303843,-0.007248786278069019,-0.02064826712012291,-0.001659458503127098
-0.6015849969619885,-1.0272827542074023,0.036732524591684336,0.003907722420990467,0.0019738096743822098,0.0014089448377490044
-0.6277304784245789,-0.9403028282821178,-0.10436229175031185,-0.0034247590228915215,0.006010362878441811,-0.004612196236848831
-0.7759437484696508,-0.624237448677048,-0.034760347735881804,0.006480874493718147,0.0018847398459911346,-0.062993124127388
-1.0368969702489674,-0.3574447801545262,-0.07663724947869777,0.002748986938968301,-0.005646680016070604,-0.13011810183525085
-0.9712877491325139,-0.21097495624329893,-0.02363397356569767,0.0030640228651463985,-0.0332278348505497,-0.20299167931079865
-0.7176725420910864,-0.18986401661550625,-0.0798649793535471,-0.005593380890786648,-0.0235469788312912,-0.2548101246356964
-0.23015319250915198,-0.4515075039476156,0.015151976424455642,0.000856796745210886,0.009317162446677685,-0.25030428171157837
0.22382201672624796,-0.7528505307171494,-0.10185352379977702,-0.0012313879560679197,-0.004481739364564419,-0.19342927634716034
0.3840955807907507,-0.748672149053961,-0.08163958781063556,0.0009793220087885857,0.0017016916535794735,-0.12963347136974335
0.21387091514682396,-0.40686274492666125,-0.030453005930781363,-0.000507520860992372,0.010505037382245064,-0.1096658855676651
0.07476382485621143,-0.2112503939175047,-0.03299801423847675,-0.008365185931324959,-0.0054351650178432465,-0.11018571257591248
-0.07543927186578511,-0.2627946483949199,-0.004741057047247886,-0.006380864884704351,-0.01996191032230854,-0.12853595614433289
-0.16609333799285814,-0.2319420304209925,-0.054290393114089966,-0.006989406421780586,0.015178983099758625,-0.16629375517368317
-0.18505718258935958,-0.2942885234144516,-0.051610944771766656,-0.009187845513224602,0.0063561974093317986,-0.18683898448944092
-0.036069900531065645,-0.3174573454201221,-0.06089256785809993,-0.007447472773492336,0.011340131983160973,-0.19386325776576996
0.1972798275636509,-0.3859341943947598,-0.042649055159091946,-0.004441030323505402,0.011303381994366646,-0.1759074330329895
0.3883839256344363,-0.460291150916554,-0.05313362429440021,-0.005751949734985828,0.012943945825099945,-0.13735203444957733
0.45772429610323156,-0.3753466398090124,-0.04655658399164676,-0.00346083240583539,0.012631556019186974,-0.09198880940675735
0.5353406562797725,-0.18378553695203736,-0.032193127596378324,0.0027601744513958693,-0.007778303697705269,-0.04576870799064636
0.40048111759815364,-0.03272924376707524,-0.042667759859561914,-0.0007746394257992506,-0.011163447983562946,-0.01808328367769718
0.2074773416521959,0.03545486933868378,-0.016032850912213324,-0.004465787671506405,-0.003798089688643813,-0.01962827332317829
0.04537623336696997,-0.026776363244652747,-0.04028291054964065,-0.006164085119962692,0.0034134844318032265,-0.03226497396826744
0.06201632032417692,-0.17216783560095353,-0.0049777884125709534,-0.008591542020440102,0.0229059886187315,-0.06694261729717255
0.0035173170887050215,-0.33849779536128044,-0.06290215411484242,-0.010973349213600159,0.03846936672925949,-0.09637629985809326
-0.2266661358446814,-0.4210412001438439,-0.037926118290424346,-0.0030336668714880943,0.00527998898178339,-0.1123368889093399
-0.20188266345029696,-0.4190701923318207,-0.04197977759540081,0.0038496714551001787,0.007751150988042355,-0.11351116001605988
-0.06783098881915212,-0.44027357774972914,-0.07116144841611385,-0.002090509282425046,0.0009020334109663963,-0.08862418681383133
0.06907051315200514,-0.48531098935008044,-0.042136429461836815,-0.006000562570989132,-0.01691824197769165,-0.05211411044001579
0.231517649262771,-0.35132710099183023,-0.055904842573404306,0.0036280963104218245,-0.004139597062021494,-0.01292356476187706
0.2666357974603772,-0.16589438135465606,-0.011155600264668464,0.00903976522386074,-0.025091052055358887,0.017633752897381783
0.237390998275578,-0.06159289814718067,-0.057660161808133124,0.0077260276302695274,-0.025607971474528313,0.048045456409454346
0.19026070604920386,0.022606749409809706,-0.05613105254471302,0.0017050262540578842,-0.00995191652327776,0.05948283523321152
0.17208236754089593,0.047621126216929405,0.007184943068027496,-0.0014606732875108719,0.018007546663284302,0.06741585582494736
0.04468612307780422,-0.012892963717598467,-0.04951660284101963,0.0007249715272337198,-0.009122063405811787,0.050614699721336365
-0.017164562922460026,-0.11502099360981956,0.005414426264166832,0.004931168165057898,-0.022606980055570602,0.009892571717500687
-0.35945677756406363,-0.2795727281838655,-0.06100421153903007,0.005225725006312132,-0.0019523133523762226,-0.06086594611406326
-0.7629922046989202,-0.34449546487350013,-0.047671851757168766,0.001344700576737523,-0.012529856525361538,-0.14354990422725677
-0.9629263096310198,-0.16375641947789116,-0.026268413722515104,-0.0005091374041512609,-0.011871244758367538,-0.1877986639738083
-0.8842705599367618,0.025741942162998018,-0.007115384963154793,0.0012837026733905077,-0.024493563920259476,-0.21588756144046783
-0.5413621450589969,0.05231129332715645,-0.034787820264697074,0.036015987396240234,-0.09116324782371521,-0.2454230785369873
-0.3060747497328557,-0.016794282005075364,-0.06331248848140239,0.08148094266653061,-0.2200772911310196,-0.24461694061756134
0.13218340567438863,-0.2524553877481259,-0.2304442478775978,0.06939513236284256,-0.158797949552536,-0.2070607841014862
0.6391400534503161,-0.5173685809332877,-0.2326794595837593,0.02190244570374489,-0.03602728247642517,-0.15055063366889954
0.9524545269120483,-0.7382556767188012,0.0799737004250288,-0.008506076410412788,0.09724429249763489,-0.08439569175243378
1.0077502246111631,-0.5218718106366693,0.21644728670716284,-0.027784965932369232,0.13823114335536957,-0.03910677134990692
0.8194660062666982,-0.5127432957528159,0.10582125838696955,-0.025768809020519257,0.10148750990629196,-0.03977496549487114
0.5114908480063081,-0.22727140826145187,0.02971417026221752,9.607849642634392e-05,-0.0015573813579976559,-0.031147122383117676
0.3190070956127718,-0.0269998515359126,-0.17517302703261375,-0.019673224538564682,0.05850981920957565,-0.022312182933092117
0.2337783972689882,-0.09767433841899037,-0.17832593810558317,-0.005467656068503857,0.045989230275154114,-0.0497528612613678
0.0036608252041332888,-0.24363727225400506,0.06495791760087014,-0.016361987218260765,0.07246752083301544,-0.08125738054513931
-0.21140518262041733,-0.46792073247954247,-0.08544657887816429,0.0009783869609236717,0.003712954930961132,-0.10162311047315598
-0.2439433425284922,-0.4723487415222451,-0.005571078130602836,0.0083934236317873,-0.040796130895614624,-0.10614413022994995
-0.06515881046783178,-0.4547798766817897,-0.1746434502005577,0.007954001426696777,-0.04518475383520126,-0.10510842502117157
0.1734058164306916,-0.45835452029816803,-0.09454700017869472,0.005080583039671183,-0.007058391813188791,-0.0947786420583725
0.3834993684632703,-0.43711434653382747,-0.06563654751479625,-0.0017432346940040588,-0.0064914049580693245,-0.0736674964427948
0.6293121946580708,-0.3899473755588755,0.02758358797430992,0.009555897675454617,0.02759402245283127,-0.04561347886919975
0.7864169924933463,-0.5173877970904112,0.001253214931488037,-0.006571672856807709,0.026244599372148514,-0.017357073724269867
0.8524635090485214,-0.5560573541592806,-0.09062894995212555,-0.028112387284636497,0.04158550128340721,0.01912568137049675
0.7861723700825125,-0.3800954052386805,0.0384726462572813,-0.03781081736087799,0.1001950204372406,0.05809944495558739
0.7093634172987192,-0.2759965867301449,0.016557167047262192,-0.02446572482585907,0.08011910319328308,0.05216481164097786
0.45600529029089953,-0.2684998560328968,-0.0002963525980710983,0.0076328241266310215,0.010748819448053837,0.046057652682065964
0.16661018320750445,-0.33112807031087577,-0.1571194839477539,0.007671702653169632,-0.018628450110554695,0.03539404645562172
0.0673114538904978,-0.5700618045164272,-0.09470715917646884,-0.0043095918372273445,-0.012392924167215824,0.02232271619141102
0.050245328107522795,-0.6009376755017787,-0.09722411043345927,0.008532170206308365,0.021675031632184982,0.03267335891723633
0.2255987623414956,-0.6048120327170938,0.02818447647690773,0.011097859591245651,-0.025662390515208244,0.04483255371451378
0.3956294763159007,-0.577673813890107,-0.06711831050515174,0.042168449610471725,-0.1283092200756073,0.04465598240494728
0.45233613679148255,-0.45114447932150215,-0.13168050678670407,0.028403103351593018,-0.08510822802782059,0.04863341152667999
0.43947376914154734,-0.2821487526843324,-0.18678104723989963,0.0005096641834825277,-0.014598021283745766,0.045765459537506104
0.39970118273422117,-0.30137247205972667,0.012438625812530517,-0.013590442016720772,0.05868684500455856,0.03195084258913994
0.36666265382226554,-0.4087398639101535,0.17417583268880843,-0.039630286395549774,0.08343622088432312,0.028273683041334152
0.32509817902948707,-0.29412935079736635,-0.024281039297580718,-0.06054595857858658,0.14009444415569305,0.043269410729408264
0.35750242862589654,-0.2278463586051948,0.13077391333580016,0.0011915741488337517,-0.02928522415459156,0.03916231542825699
0.2924954659852199,-0.033219073110632595,-0.14994564679563044,0.006249449215829372,0.03420586884021759,0.06851701438426971
0.27350840490991246,0.05932537334030494,-0.006430325308442115,0.004587248433381319,0.06120723485946655,0.07956944406032562
0.09278328757495619,0.0037830987352877854,-0.08212415645718574,0.010996931232511997,-0.0383862666785717,0.0542406365275383
-0.006570119654911104,-0.07485354439970106,0.038486090260744094,0.015753602609038353,-0.015358977019786835,0.047953445464372635
-0.09673567846254445,-0.15723931093513965,-0.09914368031919002,-0.001305821817368269,0.030097495764493942,0.030400853604078293
-0.021455426233506294,-0.2816867977283895,-0.07262509122788906,0.007006436586380005,0.003232858143746853,0.013830931857228279
0.09594698490342125,-0.252224939993117,0.09526479305922984,0.002804776420816779,0.017831822857260704,0.029087679460644722
0.34385840907897797,-0.2177569262673147,0.000720130968093872,0.0041989414021372795,0.004046768881380558,0.03869955986738205
0.33556594316046684,-0.2215008072370663,-0.06242986042797565,-0.004545793868601322,-0.002601334825158119,0.06428172439336777
0.26113427743464707,-0.23286203134274108,-0.06826280436515808,0.01801038160920143,0.011491579934954643,0.08360935002565384
0.026629406221746466,-0.12485371124027296,-0.045236733564734455,-0.0026597518008202314,0.002765847370028496,0.09030046314001083
-0.3427205641554668,-0.1438043858279474,0.04994797999560833,-0.0046627153642475605,0.02079145237803459,0.034974355250597
-0.5646453689582646,-0.23657387320641426,-0.05745148749351501,0.025246968492865562,-0.06314372271299362,-0.022770458832383156
-0.4077615934625268,-0.19905392456408588,-0.08766542397141457,0.008959341794252396,0.0673074945807457,-0.024137459695339203
-0.09727639774312265,-0.21299897288419306,0.04162672637403011,0.012401900254189968,-0.02738076075911522,-0.04095285013318062
0.029998371198191306,-0.1179501241305843,-0.06698211690485477,0.0015042454469949007,-0.002573147416114807,-0.01610422506928444
0.05931161880958825,-0.13151674932604654,-0.04301438134014606,0.00015574856661260128,0.06746646016836166,-0.02093292400240898
0.060862337116617704,-0.271772265299689,0.045566988432407377,0.009790532290935516,-0.012614792212843895,-0.02909817546606064
0.10614129325472749,-0.1673755050241947,-0.09865443549752234,0.038004450500011444,0.02115321159362793,-0.0099521204829216
0.07294273777573834,-0.08076494213426486,-0.11542670660018921,-0.02466532588005066,0.024269111454486847,-0.013055767863988876
-0.049646330167911944,-0.03740667925989255,0.1989823571652174,0.00021618534810841084,-0.03462422639131546,-0.03283438831567764
-0.04905098549011163,-0.11154752707928418,-0.15357085155546665,0.003941947594285011,-0.028981253504753113,-0.04580052196979523
-0.03883261584320571,-0.06533208467550575,-0.09611001171171665,-0.0005721052875742316,0.04421457275748253,-0.03275216370820999
0.09367449166048318,0.03258514085495844,0.08016308551728725,0.011329295113682747,0.030367735773324966,-0.013298571109771729
0.17249620903879403,-0.055226979844458395,-0.1117974101871252,0.011024381965398788,-0.013026334345340729,-0.006200652103871107
0.23389990475680678,-0.0958042519644834,-0.02186930198073387,0.0384027436375618,0.022239243611693382,0.022858697921037674
0.3725955875352025,0.02896916058119386,-0.14335691605508327,-0.019439255818724632,-0.09715287387371063,0.06520584225654602
0.444875993511267,-0.049371294352505354,0.22789164078533647,0.007399548776447773,0.009523505344986916,0.1472245454788208
0.29127065516430883,0.14922957094814626,-0.2259299853235483,0.0054857851937413216,-0.000633027870208025,0.1537797451019287
-0.1691062378069386,0.35463326639775183,-0.0102870007365942,-0.005884846672415733,-0.031433816999197006,0.12236882746219635
-0.60667943402417,0.3564622719231993,0.161494630292058,0.003514651209115982,0.016420716419816017,0.07439156621694565
-0.8627117121446877,0.31488734880164265,-0.18400924443900585,0.008076380006968975,-0.02266649901866913,0.015819333493709564
-0.9638586951103061,0.3678539459660649,0.062297173959016794,-0.0014335133600980043,0.030782554298639297,-0.052346959710121155
-0.7166602232433855,0.026745164388790724,-0.012080898416042327,0.007747202180325985,0.013642183504998684,-0.10312651842832565
-0.2395556106972508,-0.21477096925908698,-0.12999591470062732,0.006510036997497082,0.010082467459142208,-0.09736593067646027
0.10143601077375933,-0.09868596314694732,0.020105214917659757,0.006926821544766426,0.06097227707505226,-0.04786122962832451
0.23605089051192624,0.102018833896704,-0.004131400716304779,0.023084232583642006,-0.04849529266357422,-0.01640847884118557
0.2500951614228077,0.1040973572038114,-0.028207857352495192,-0.0020312394481152296,0.0017353850416839123,0.041504353284835815
0.2668796709525399,0.2896966838458553,-0.12185410929918289,0.004805365577340126,-0.027248386293649673,0.060445863753557205
0.15915966627215966,0.10978996108854189,0.10127017095386981,0.0063372161239385605,0.011491551995277405,0.08210322260856628
-0.026703608535695818,-0.0292320127684623,-0.1506710384607315,0.01702290214598179,0.027129177004098892,0.06441771239042282
-0.23367986879795788,-0.10356809089900926,0.05611527045369148,0.010720796883106232,0.03415992110967636,0.02205801010131836
-0.41019240080602465,0.0017446882428601383,-0.13745909018814562,-0.006094683893024921,-0.042190611362457275,-0.01579895056784153
-0.36436719982884824,0.0684955719414167,0.09282441416978836,-0.011554164811968803,0.028505396097898483,0.019057568162679672
-0.17816009828569365,0.22318057701755314,-0.0852501795232296,0.003917979076504707,0.005180445499718189,0.015720363706350327
-0.25936889346363023,0.3724167969021946,0.03102466833889484,0.019183218479156494,0.00780312716960907,0.02049780823290348
-0.2759389199924655,0.3790476132187992,-0.0739957950592041,-0.002304208930581808,0.045912109315395355,0.030014989897608757
-0.32886984305530786,0.31807160486094654,0.034332477712631225,-0.006441162899136543,0.0514107421040535,0.030226444825530052
-0.3041104456562549,0.14782843544594942,-0.02401566635966301,0.017432481050491333,-0.034666113555431366,0.0263863205909729
-0.1863495604874566,0.04571525606298819,-0.028925650233030318,-0.00817263126373291,-0.01847015507519245,0.008445573039352894
-0.11113247087183407,0.2603585986207239,-0.1004646997898817,-0.004790150094777346,-0.01388472504913807,0.02945365384221077
-0.16093842118140309,0.30963344686143096,0.06533201161026954,0.03207305073738098,0.11413200199604034,0.06112675741314888
0.012575719028548336,0.21748068487551062,0.015042086309194564,-0.025135112926363945,-0.01518656499683857,0.027445228770375252
-0.012964946674997917,0.2535604263805784,-0.2830605702996254,-0.0025325885508209467,-0.01935965195298195,0.060718897730112076
-0.15625656524179501,0.23220661790762095,0.2665425662189722,0.0020693540573120117,0.0014620074070990086,0.08632040023803711
-0.05642305319465231,0.04156233763461932,-0.09229191472828388,0.0020730840042233467,-0.0007798704318702221,0.06839054822921753
-0.19495109235513955,0.16837770433668045,-0.05308744706511497,0.007378634065389633,0.019843915477395058,0.054775409400463104
-0.30460697873523457,0.2924440645915456,-0.03183423115611076,0.02758643589913845,0.012908482924103737,0.03106331266462803
-0.3410961778240278,0.4694994895709678,-0.06459785211682319,0.0040715220384299755,-0.0005609877407550812,0.01692725345492363
-0.3167089382056147,0.36072891639173027,-0.2013561005592346,-0.01755586639046669,-0.02776317484676838,0.025423964485526085
-0.2903950048409402,0.38687209629938,0.28868776253163814,0.006978505291044712,0.002503916621208191,0.049007318913936615
-0.2428932672199793,0.4080681021284312,0.05478314506709575,0.009313422255218029,0.007962459698319435,0.022911109030246735
-0.31587252391409126,0.6611573855996131,-0.18164719148278236,0.01410737819969654,0.029513558372855186,-0.03787527233362198
-0.5386034940006211,0.5024940697433427,-0.05160568407475948,0.00947867427021265,-0.13101251423358917,-0.08174103498458862
-0.5122977439424022,0.1900461865156889,0.05375614010691642,0.03353021666407585,-0.03831187263131142,-0.047755904495716095
-0.18473154909787698,0.045047403271403164,0.1614724184602499,0.0020479243248701096,0.04826453700661659,-0.04589579999446869
0.1224719124039635,-0.08307847977364435,-0.3343061888903379,0.010065104812383652,0.09046126157045364,-0.04076867923140526
0.13075685260314493,0.03399597576726228,-0.02519406248927116,0.010793212801218033,0.01792820170521736,0.011138459667563438
0.27326953638643026,0.3341652825823054,-0.13129822947084904,0.001906776800751686,-0.058170024305582047,0.07447481900453568
0.3722629215147346,0.32211620407663283,0.1314654027312994,-0.004849281162023544,-0.018473468720912933,0.1306343525648117
0.2940485954450443,0.2126016806622967,0.1171042844235897,-0.006438122596591711,-0.018705163151025772,0.12031034380197525
0.07967982291183434,0.2192396025731228,-0.13833295041322707,-0.026426736265420914,-0.058207448571920395,0.08315816521644592
-0.25600568237453697,0.06344944926667959,0.0015624270111322402,0.0137955192476511,0.047827642410993576,0.05142153427004814
-0.5213478598278015,-0.07034536452656612,0.02790215240418911,0.009832742623984814,0.005615358240902424,-0.04016847908496857
-0.5273115174725651,-0.04395009128767997,-0.2522042442649603,-0.02842409908771515,-0.07079339772462845,-0.14304932951927185
-0.7076189117189496,-0.20301862694397568,-0.0534913516908884,0.010450867004692554,-0.012949060648679733,-0.1729682981967926
-0.5984413286413998,-0.21984476539203895,0.16392331874370575,0.005212428979575634,0.01853908970952034,-0.15244092047214508
-0.052617007408617064,-0.049659445377811785,-0.12475859856903553,-0.005069771781563759,-0.042560189962387085,-0.11633738875389099
0.23103691654112188,0.22604725502766668,-0.040482817035913464,0.013168087229132652,-0.026423029601573944,-0.04761292785406113
0.36971477140188214,0.439340205889754,-0.04778934065699577,0.026754874736070633,0.02994086779654026,-0.004646851681172848
0.36281529421173037,0.47024289181679485,-0.045516135028004646,0.004136113449931145,0.002567300572991371,0.007321927230805159
0.20526297180466352,0.495261232412979,-0.005701426512002944,-0.005232625640928745,0.006014286074787378,-0.01749718002974987
-0.06879063676469958,0.1256853945577517,0.0723965431690216,0.005432535894215107,-0.0068842023611068726,-0.09264625608921051
-0.2408691227149218,-0.10259920933423564,-0.12137480134963989,0.010982174426317215,0.02398463897407055,-0.1336878091096878
-0.2484027148238383,-0.16777637744266538,-0.08305529982745646,-0.0005301384953781962,0.001277728471904993,-0.13112957775592804
0.03217756470106542,0.019748693097569048,-0.06896656872034072,0.009122747927904129,0.03046499192714691,-0.07607743889093399
0.2509165425419807,0.2762739241004921,-0.07328618548512458,-0.011714090593159199,-0.07038865238428116,-0.03106522001326084
0.26988699954235923,0.37837680128514767,0.08920447010695934,9.994069114327431e-05,0.008512281812727451,0.02371380850672722
0.12596519787982105,0.43576263966392725,0.14904197595417498,-0.0020202018786221743,-0.003125465475022793,0.027065664529800415
0.027250812355987725,0.5877074974527582,-0.1336211194604635,0.007202873472124338,-0.0012713386677205563,0.023590411990880966
-0.19387202841416,0.6556474630717187,-0.0053653264254331584,6.613414734601974e-05,0.003288792446255684,0.00045686447992920876
-0.24114191177431493,0.493126010482572,-0.04665653723478317,0.0010601645335555077,0.001340886577963829,-0.04728763550519943
-0.37581480531003325,0.21590273150168357,0.003629296413064003,-0.0017963419668376446,0.0059524159878492355,-0.09664986282587051
-0.3790384069990366,0.02773035776754841,-0.06460311281383037,0.0050202785059809685,0.015771308913826942,-0.12223424762487411
-0.22990707226097581,0.0021958660764619707,-0.0465028079777956,-0.000592067139223218,0.0424300841987133,-0.12911957502365112
-0.04780220470514614,0.024890567764360456,-0.0067167410343885415,0.02149232104420662,0.02462511882185936,-0.11110985279083252
0.23504565899213775,0.3630864393033087,-0.10516717839241027,-0.008895679377019405,-0.05601673200726509,-0.08175382763147354
0.3083987539673224,0.262956177365873,0.08846738800406455,-0.0015717120841145515,0.022193536162376404,-0.036656834185123444
0.2170007376051508,0.14700623234286903,0.1521995632022619,0.013089255429804325,0.009101169183850288,-0.02623935043811798
0.09420616911808029,0.5258833113003522,0.0037689971446990965,0.010372431017458439,0.007801294792443514,-0.023676132783293724
-0.08989124679472296,0.6622156624808907,-0.026736031234264372,0.008615277707576752,0.009175485000014305,-0.010494817979633808
-0.2388908449118957,0.6091192283917218,-0.015504443123936652,-0.0023257872089743614,-0.03833717107772827,-0.04966059699654579
-0.45628991591855883,0.41667197208367285,0.03448269983828067,-0.001901543466374278,-0.03064199723303318,-0.10614369064569473
-0.5641255463352427,0.25356017065225167,0.059313189712166786,0.011940501630306244,0.04434596374630928,-0.16235582530498505
-0.4014752797346562,0.13097482446907088,-0.0737035341143608,0.01755446009337902,0.048648398369550705,-0.18267083168029785
-0.15748426213953642,0.040614699787274,-0.15988076535463333,0.006860802881419659,0.022587504237890244,-0.16473284363746643
0.2852483809337951,0.10052412009323015,0.031067338436841962,0.008299550972878933,-0.0016011320985853672,-0.115533247590065
0.32121487132273613,0.293929955767747,0.028965982243418693,0.0015620198100805283,-0.010726453736424446,-0.0688467025756836
0.3595478533810004,0.4662837789274752,-0.0003612345278263092,-0.0034410948865115643,-0.020030345767736435,-0.043566808104515076
0.3938120516303926,0.5335031021216884,0.005475801062583923,0.006369458511471748,0.008535519242286682,-0.026709794998168945
0.30305121892690656,0.4145529341030866,-0.10045534743964671,0.020387643948197365,0.0657796859741211,-0.007730423007160425
0.2319766085440293,0.34320604611746963,-0.11405600276887416,0.020222794264554977,0.0430634543299675,0.018149910494685173
0.07536767706745304,0.2488333613260649,0.03035772886276245,0.010877372696995735,0.01929301768541336,0.04256433621048927
-0.21370728555032983,0.17285561693571508,0.061491118273138995,-0.002873858902603388,-0.02217080444097519,0.037555992603302
-0.40184970253761854,0.22155845570843666,0.057902738392353055,-0.009576383046805859,-0.0461590401828289,-0.004495791159570217
-0.592556983310543,0.20098591553997247,0.015401567271351814,-0.0007104537216946483,-0.002411826979368925,-0.07617902755737305
-0.6598703414637596,0.18884214448817074,-0.14680501068234442,-0.0013101731892675161,0.0037080743350088596,-0.1468174159526825
-0.4248987523548305,0.040617311869468535,-0.021865210327506063,0.004532801918685436,0.034901682287454605,-0.20069342851638794
-0.26468011508164924,0.003731478145904839,-0.10058043512403965,0.016771867871284485,0.07170633971691132,-0.2162296175956726
0.057972205165680496,0.1263565352849662,-0.09475801258087158,0.011442882008850574,0.06390620768070221,-0.19553232192993164
0.29533739314656704,0.17836818807842209,0.0017471359282732008,0.01309883501380682,0.054267965257167816,-0.14126881957054138
0.4135653113052249,0.3327905236303806,-0.01456862357854843,0.01249829214066267,0.040657613426446915,-0.0862329974770546
0.5180696418747306,0.36414193970561026,0.001429156020283699,0.01499741617590189,0.05535542592406273,-0.03754841908812523
0.4704575209481641,0.3950927025580778,-0.05065408243834972,0.010673773474991322,0.0344109982252121,0.019150013104081154
0.33654706315230576,0.3825991682205349,0.04645838431417942,-0.0017362994840368629,-0.0046931481920182705,0.053910039365291595
0.019362999981921165,0.34127993689309805,0.08117781551778316,-0.015214291401207447,-0.04675618186593056,0.05640382319688797
-0.30316342886341735,0.3803788618225604,0.059793666705489155,-0.013253954239189625,-0.058167558163404465,0.03227844461798668
-0.551355204350315,0.3431501512117684,-0.01127425820827484,-0.011828896589577198,-0.05272139236330986,-0.01928514800965786
-0.6665124098267405,0.29810786250689997,-0.026831892824172972,-0.014750759117305279,-0.041807621717453,-0.06839253753423691
-0.6830106132283806,0.21606626976663246,-0.03731470839381218,-0.009741352871060371,-0.0347616970539093,-0.11066436022520065
-0.6149984956886619,0.24638666229369116,-0.037626843082904815,-0.018422728404402733,-0.042830511927604675,-0.16844579577445984
-0.50697636625655,0.377298394931294,0.01742518205344677,-0.013417848385870457,-0.030093146488070488,-0.19734375178813934
-0.22764747503222896,0.2586630650155246,-0.06338906084895134,0.00033953716047108173,0.011141344904899597,-0.2070695161819458
0.046555291650281286,0.3594106368673965,-0.11157646091282367,0.005474378354847431,0.0309576578438282,-0.2042550891637802
0.11303174688820726,0.2611180934848264,-0.06383972722589969,0.01773153804242611,0.03876595199108124,-0.1823706328868866
0.23126566552938893,0.31070451015904543,-0.045726562908291815,0.005578202661126852,0.02001943252980709,-0.1448965072631836
0.33917795964516695,0.1940486453563906,0.07652034510076046,-0.020885998383164406,-0.030290957540273666,-0.09627856314182281
0.2631315156664699,0.33222119930982585,0.1704687948644161,-0.03197327256202698,-0.09369309991598129,-0.06394273042678833
0.00804337739511393,0.4245025926440954,0.055956865021586415,-0.04285736009478569,-0.12192324548959732,-0.06194788217544556
-0.25154315000772476,0.30895898166596886,0.01220890870988369,-0.032895006239414215,-0.09860274195671082,-0.09342911094427109
-0.3129442153772339,0.17409105874849481,-0.12054478026628493,-0.002987575950101018,-0.018002688884735107,-0.1308620423078537
-0.44127475414890793,-0.008709467487875372,-0.2292021388620138,-0.02002141997218132,0.01635102368891239,-0.19778569042682648
-0.5223557947613299,-0.13726930323708803,0.011405775633454322,0.005377005785703659,0.039837274700403214,-0.24617107212543488
-0.2506641204171814,-0.13104412684561684,-0.17441081048846244,0.03607340157032013,0.08423402905464172,-0.2616906464099884
-0.05332798238929826,0.07050373342605307,-0.11199030241072178,-0.015002431347966194,-0.034946464002132416,-0.25818729400634766
0.0327767886862508,0.3890636149942875,0.34360768572092054,-0.03427492827177048,-0.05946458876132965,-0.1947164237499237
0.4681828905470669,0.3656280866101384,0.05428980859220028,-0.023049181327223778,-0.04186045005917549,-0.13222092390060425
0.5603401825776323,0.383831961418502,-0.2973725887686014,-0.012093468569219112,0.04179529845714569,-0.13531072437763214
0.09880445669377222,0.40797523621320725,-0.007698737809062004,-0.008268746547400951,0.005920628551393747,-0.11049509048461914
0.11894593936805613,0.11754048388376831,0.08147416811585426,-0.006987235974520445,0.008651195093989372,-0.07751759141683578
0.21367513684639705,0.011175364411063492,-0.09212707955539226,0.0030448916368186474,0.029430776834487915,-0.06864313781261444
0.10030346307987346,0.24273659708723425,-0.05264847112596035,-0.019055088981986046,-0.04375336691737175,-0.08734762668609619
-0.024511749630782287,0.5084903510160744,-0.03799100022017955,0.00848332792520523,0.10092205554246902,-0.10586059093475342
-0.16149291325900703,0.6511294741906225,0.1684960334867239,-0.025739865377545357,-0.09443169832229614,-0.13854417204856873
-0.33172683992162344,0.5890026883624494,-0.215063138872385,-0.012657620012760162,-0.08065889775753021,-0.14500899612903595
-0.31059542376138266,0.4334427088163793,0.15571546236872671,-0.018481846898794174,0.01850978098809719,-0.15347307920455933
-0.03583250701203942,0.20994592372281476,-0.11590543002784251,-0.025415919721126556,0.03095393441617489,-0.16458140313625336
0.07512019597925246,0.15642892613401635,-0.0017816227197647093,0.015589974820613861,-0.011238595470786095,-0.15832337737083435
0.1805399060943164,0.10766182648604736,-0.046830724757909774,-0.00501010799780488,-0.016826441511511803,-0.14848752319812775
0.1289180654691998,0.6099634971961378,0.041160862427949904,0.0020316638983786106,-0.039893053472042084,-0.1375875473022461
0.005824153275950811,0.6384864849124103,-0.006449030008912086,-0.00681722117587924,-0.016617024317383766,-0.14667531847953796
0.03150250128398183,0.43559732956700026,-0.07485153510570526,0.02506723441183567,-0.09256568551063538,-0.15678852796554565
0.04447272692229599,0.6186003926381468,0.012693477356433868,0.00463599618524313,-0.05482656881213188,-0.14878413081169128
0.24195235137436538,0.6429347695581614,-0.05459492901861667,0.006879313848912716,-0.03663082420825958,-0.13381293416023254
0.2988679784255102,0.6886272110011428,0.04522971930205822,-0.009228549897670746,-0.018906690180301666,-0.11414735019207001
0.31089886368736624,0.31501682040020823,0.003932078751921654,-0.025405388325452805,0.24411723017692566,-0.11156435310840607
0.3871779839107767,-0.003970164006296545,0.1298702424943447,0.028379812836647034,-0.008021019399166107,-0.1222127303481102
0.25959598021777347,0.24145620188787578,-0.21157471223473548,-0.047018419951200485,-0.13725419342517853,-0.08156777918338776
0.2961820455434732,0.40563415297977623,-0.1203238309919834,-0.03861987590789795,0.01304636150598526,-0.04925617575645447
0.2583567207464017,0.4428090875767171,0.45811201677918434,-0.009597266092896461,-0.03202380985021591,-0.08586066961288452
0.052652389249252154,0.6181260531246662,-0.09590484452843666,0.008359896019101143,0.021763788536190987,-0.11808091402053833
-0.11185401747887953,0.7269470047842711,-0.11178104357421398,-0.008113095536828041,-0.015003170818090439,-0.1149376705288887
-0.05785967100218404,0.46665498686004425,-0.11120938116610049,0.002366709290072322,-0.04169124364852905,-0.08924988657236099
0.05937982520759105,0.02177071871077642,0.15633856270313262,-0.020139534026384354,0.036203037947416306,-0.09921258687973022
0.044820617911359294,-0.09867306713275611,-0.06514554912745953,0.0019146366976201534,0.01897478476166725,-0.12165451049804688
-0.15901808411069213,-0.06912128435801715,-0.06981120285093784,0.022111255675554276,0.02220327779650688,-0.15559884905815125
-0.23044583704648539,0.038251532586198296,-0.05904547868669033,0.013907121494412422,-0.007311204914003611,-0.2134549617767334
-0.3201412142092362,0.3096052802128717,-0.06963818437159061,-0.006071917247027159,0.04038659855723381,-0.25375768542289734
-0.35096206707172095,0.5793013785593212,0.12914952700436114,0.0075030140578746796,-0.06641015410423279,-0.2687414288520813
-0.1464594303813763,0.27608435634514317,-0.01512158128619194,-0.030220260843634605,0.007836896926164627,-0.24256327748298645
0.21161904456680639,0.09065249522449448,-0.09668693481683731,0.002603198168799281,-0.019084200263023376,-0.1866757869720459
0.4387962352061644,-0.09626918432880192,0.14555354931652545,0.004051830619573593,-0.019548989832401276,-0.12193447351455688
0.552363723805733,-0.3791666364885866,-0.1974006409317255,0.0019474003929644823,0.037968628108501434,-0.0917973518371582
0.35737299355994906,-0.30698300541788337,-0.011997896307706831,0.0038387903477996588,0.02274347096681595,-0.13906848430633545
-0.06652092000073753,-0.1497910224894993,-0.03055120560824871,-0.001648652832955122,-0.04486912861466408,-0.22302916646003723
-0.4776183890208602,-0.14050090556945652,-0.0756079064309597,-0.005681471899151802,0.037579357624053955,-0.30244219303131104
-0.5774227982711047,-0.15736339397253468,-0.07101005724668502,-0.02191157452762127,-0.04993930831551552,-0.3482312560081482
-0.35819705982655287,-0.08055908083124086,-0.011315759262442588,-0.00465390644967556,0.027462419122457504,-0.31055980920791626
0.12420482801063917,0.01485525850020349,-0.041132805377244945,-0.02889080159366131,0.0279734805226326,-0.23527278006076813
0.5604589135864749,0.06433423274457455,0.050264790859818456,0.020298829302191734,-0.00037617841735482216,-0.15557360649108887
0.7276230043496936,-0.07460198079142719,-0.11899871986806392,-0.008687814697623253,-0.020254280418157578,-0.0727841779589653
0.6651764850478619,-0.18104714323040097,-0.07575462142527103,-0.01928585022687912,0.005620825104415417,-0.031082943081855774
0.44637324633169917,-0.2244701967029832,-0.013365093007683753,-0.01149557251483202,-0.008657180704176426,-0.061906635761260986
-0.06835670232684352,-0.19323352958122267,0.036761750686168666,-0.00765888299793005,0.001706175971776247,-0.12130513042211533
-0.5386700929634273,-0.01801063552489504,-0.03792845637798309,-0.019209545105695724,-0.004590601660311222,-0.20054775476455688
-0.7245039224810897,-0.008972538870852441,0.03329261327087879,-0.01691962406039238,-0.01624700427055359,-0.2551403343677521
-0.6367484821386635,-0.17974943157006054,-0.09242577024102211,-0.028806643560528755,0.03048800863325596,-0.27219709753990173
-0.30487293619504197,-0.2128207485067658,0.04911445178091526,-0.000953037990257144,-0.02098800428211689,-0.22934499382972717
0.2579829189979471,-0.19767171295806765,-0.06328910760581492,0.006080636754631996,0.023644443601369858,-0.17571400105953217
0.18528262537568807,-0.10118338771956041,-0.023626374781131745,-0.007235695607960224,0.037827055901288986,-0.10013557970523834
0.015284375199046917,-0.051480066667404026,-0.016910218268632888,-0.004039761610329151,-0.01489800401031971,-0.14821484684944153
-0.38911695261672136,0.10163378010187298,0.040111645635962485,0.015302244573831558,-0.004778791218996048,-0.1921577900648117
-0.6933636649385094,0.1670676446514204,-0.10173428133428096,-0.013207301497459412,0.02161506377160549,-0.23045364022254944
-0.5489038656754419,0.006076671298872679,0.03986205478906631,0.015382797457277775,0.0025297864340245724,-0.23054444789886475
-0.31855602737702426,0.10122028566384687,0.09968202497959136,0.00576185155659914,0.00313895707949996,-0.2118946760892868
0.23493439890369772,-0.03169564466932788,-0.02537760236263275,0.008853514678776264,0.017397254705429077,-0.1675647646188736
0.4072190110184252,-0.16859615112664178,-0.06758885062634945,-0.018806595355272293,0.026816990226507187,-0.10735125839710236
0.35119463371858,-0.1864446914250031,0.10745090541541576,0.015647253021597862,0.04832201451063156,-0.04138795658946037
0.16084840481039137,-0.1906092272259295,-0.2281786410331726,-0.007968740537762642,-0.011840804480016232,-0.020333698019385338
-0.19087357725054024,-0.054192175170313564,0.08349953646361827,0.01707189716398716,0.024154214188456535,-0.02433110401034355
-0.5102269655503332,0.029745168188679963,-0.14025193577706813,-0.009946129284799099,-0.0001101926900446415,-0.07622792571783066
-0.8684186916146427,0.2603422137415036,0.0862958891838789,0.00014884909614920616,-0.060101356357336044,-0.1544010192155838
-0.929231691430509,0.1939418239810504,-0.16060791058540344,-0.03785475343465805,0.014089047908782959,-0.22005991637706757
-0.7473611395206302,-0.15636230890490113,0.08165478537976742,0.007982508279383183,-0.035581834614276886,-0.2562522888183594
-0.3834720420649275,-0.22471825317991895,-0.0519447067707777,0.019759152084589005,-0.022429171949625015,-0.27159762382507324
-0.17927867225315422,-0.21101322416076435,-0.06299392405152321,0.007506746798753738,0.04518742486834526,-0.24860095977783203
0.0038042853705002925,-0.20327833732608705,-0.040113399201631546,-0.011658267118036747,-0.0596657432615757,-0.21940380334854126
0.10862457057097927,0.021254677213728427,0.0036047464936971663,-0.005497576203197241,-0.0067801568657159805,-0.19727373123168945
0.1414913048462942,0.23834826246779411,-0.07136486203372477,0.009361516684293747,0.045501552522182465,-0.19251437485218048
0.12434584391652606,0.26531561823990196,-0.0017909750699996946,0.007049626670777798,-0.06247205287218094,-0.19433890283107758
0.0811164863851387,0.2517354211768135,-0.04609247361123561,-0.0028055182192474604,0.005397134460508823,-0.19213402271270752
0.01914623825896997,0.1444761110770516,0.04605623325407505,-0.0024332082830369473,0.03313315659761429,-0.1965322345495224
-0.058960668213758616,-0.1600815303574316,-0.1347077456533909,-0.014040063135325909,-0.014072437770664692,-0.19564220309257507
0.05041402660477906,-0.47550724208578465,0.08718786958754061,0.00018787477165460587,-0.0015987236984074116,-0.15644925832748413
0.21904245429951696,-0.5679443374384194,-0.18064064478874206,-0.014371116645634174,0.0545680858194828,-0.10948804020881653
0.09681239696056582,-0.543929584394209,0.0013338789522647856,0.005451590288430452,0.03114159032702446,-0.07737351208925247
-0.07991702006803825,-0.34019020542763173,-0.05013619604408741,0.009930098429322243,0.047380175441503525,-0.0699627697467804
-0.1850828650198877,-0.1425601213878952,-0.10409399620294571,0.041903480887413025,0.10476463288068771,-0.10382140427827835
-0.4145030305467546,-0.1161055374435149,-0.223573193064332,0.024364836513996124,0.0613420233130455,-0.16045807301998138
-0.4607116778835654,-0.14473428708920255,0.12163140645921229,-0.039902035146951675,-0.11692439019680023,-0.21245895326137543
-0.33828144919686015,-0.3919383301803842,0.4281026629626751,-0.051947109401226044,-0.2055664360523224,-0.22110746800899506
-0.02615277656976832,-0.732894149685651,-0.34028350973427296,-0.037140198051929474,0.03768003731966019,-0.24985389411449432
0.03633847235635621,-0.5801090051477774,-0.19437807824015615,-0.013961361721158028,-0.03604328632354736,-0.2671595811843872
0.3124879229770973,-0.3768623781342059,0.0828928027421236,0.010190580040216446,0.007727362215518951,-0.18265613913536072
0.5852533092336729,-0.20610393440714106,-0.15666764852702617,-0.012567871250212193,-0.006782008334994316,-0.08117009699344635
0.44766182483751327,0.04271972750881686,0.13975976834595202,0.006469469517469406,-0.014171481132507324,-0.01951766014099121
0.13253338815583846,0.18922515245638788,-0.17027239550948142,-0.023615889251232147,-0.02066318690776825,-0.003395166015252471
-0.19103114243242889,0.2686663899725303,0.1599818876415491,0.003418391803279519,0.016850365325808525,0.0016179685480892658
-0.3144622917899862,0.17578882084339856,-0.1334475164592266,-0.014443297870457172,-0.010500551201403141,-0.022305551916360855
-0.5467056980440392,-0.03890365808568895,-0.00803308432996273,-0.015998318791389465,0.02113620564341545,-0.059241198003292084
-0.5756416504753753,-0.272113279023394,-0.004576806396245956,-0.0024826405569911003,0.020262673497200012,-0.0962529331445694
-0.6112911656033247,-0.4516997751167044,-0.07235445759296417,0.009984148666262627,0.01231393776834011,-0.12949290871620178
-0.6868672886565327,-0.5202469859138131,-0.04512099823057651,0.002575234742835164,-0.010367140173912048,-0.18650506436824799
-0.7125907087821512,-0.6195685800831765,-0.09673661917746067,0.014173035509884357,0.04322045296430588,-0.23707051575183868
-0.6002305866783485,-0.6061832480050623,-0.02682546308338642,0.016200101003050804,0.020182497799396515,-0.2669825255870819
-0.558247119288519,-0.45201275005601343,-0.04751578441262245,-0.032839346677064896,-0.034152910113334656,-0.28304538130760193
-0.34656880054883654,-0.4447808991063386,0.10017360788881778,-0.012753864750266075,0.017596356570720673,-0.2640627324581146
-0.17015737256137653,-0.21302240855870766,-0.09855448225438594,0.003852131078019738,0.004403408151119947,-0.20905940234661102
0.054113876636559144,-0.1461397517066449,-0.05394084902405739,-0.01149167213588953,0.011432820931077003,-0.18474793434143066
0.16382150233704595,-0.07231299307141452,-0.04076689467430115,0.010146226733922958,-0.006632579490542412,-0.1824502795934677
0.13582855724371037,-0.14240259273862466,0.022527473628520964,0.009906809777021408,0.05210130661725998,-0.1102229505777359
0.29580541251711545,-0.2613070219193585,-0.14265081361234186,0.01859496533870697,-0.0013096542097628117,-0.04501796141266823
0.5148329249758273,0.024503669072315097,0.04396422941088676,0.04406969994306564,0.06232710927724838,0.025050602853298187
0.4655869923023507,0.09575047595063224,-0.034575054296851156,0.0015852130018174648,-0.04659581556916237,0.05611876770853996
0.2558605382828042,-0.060817913453001526,-0.17627075914144516,-0.015865150839090347,0.005745420232415199,0.054331518709659576
-0.02769740534601733,-0.2693077566159889,0.07497428470253945,-0.012006363831460476,0.07253139466047287,0.06590846925973892
-0.34357601194102316,-0.2746142837925814,-0.027404724276065825,4.3374719098210335e-05,-0.016583308577537537,0.2302505373954773
0.7188668664421886,-0.6116407462259754,-0.08456102821528912,0.006305135786533356,0.012621408328413963,0.4259803295135498
2.7899343776509165,-1.3637690636157989,-0.14334931727051733,0.004398845136165619,-0.002003873698413372,0.4494747221469879
2.6041777050226926,-1.5746956872053444,-0.12372984004318713,0.03272651508450508,0.06670386344194412,0.32588377594947815
0.8264780039206147,-1.2305965647056698,-0.11769582057595253,0.05988010764122009,0.16358673572540283,0.15597890317440033
-0.929818405277282,-0.809390748584643,-0.20634791749715803,0.06706477701663971,0.20263536274433136,0.009812495671212673
-1.397139710558951,-0.7982959385965019,-0.2460562430292368,0.014957633800804615,0.04105577990412712,-0.05218988656997681
-0.6185683169994503,-1.1872095506608487,-0.08559563196003436,-0.02243182435631752,-0.11383438855409622,-0.046957239508628845
0.045428557209251444,-1.3359119193971156,0.334455241972208,-0.042694222182035446,-0.17429372668266296,-0.04182053357362747
0.10111530918572098,-1.0614556574441492,0.2165145067244768,-0.046234484761953354,-0.16702735424041748,-0.09661389142274857
-0.15807652894426136,-0.707483521836251,0.004429506880044937,-0.04027113690972328,-0.1311471313238144,-0.15120069682598114
-0.10665096894307062,-0.6259605461426079,-0.09920680868327617,0.005953578278422356,0.029925016686320305,-0.15130089223384857
0.17196053125951438,-0.7329035751011223,-0.25226795715093614,0.005104562267661095,-0.010345707647502422,-0.14743532240390778
0.3577092763096094,-0.7879743780031799,-0.19495324777960776,0.006696104072034359,0.027224428951740265,-0.10278618335723877
0.4223681744312867,-0.8103785905782133,-0.05351648613214492,0.01374735590070486,0.07320603728294373,-0.05237334221601486
0.3622620807757601,-0.5674096460398286,-0.10033084427714348,0.02921222150325775,0.12689973413944244,0.008969305083155632
